"Time (s)","Gyroscope x (rad/s)","Gyroscope y (rad/s)","Gyroscope z (rad/s)","Absolute (rad/s)"
4.898324200E-2,-3.206948051E-3,-3.665083554E-3,-0.000000000E0,4.870046536E-3
5.139766900E-2,-1.374406274E-3,-2.443389036E-3,6.108472589E-4,2.869194479E-3
5.381209600E-2,5.344913807E-4,-3.054236295E-3,-6.108472589E-4,3.160249160E-3
5.622652400E-2,-7.635590737E-4,-1.221694518E-3,-1.221694518E-3,1.888940827E-3
5.864089900E-2,1.145338640E-3,1.221694518E-3,-0.000000000E0,1.674615805E-3
6.105532600E-2,-1.527118147E-4,3.054236295E-3,-0.000000000E0,3.058051707E-3
6.346975300E-2,1.756185899E-3,4.886778072E-3,-0.000000000E0,5.192763121E-3
6.588418000E-2,1.756185899E-3,2.443389036E-3,-0.000000000E0,3.009042853E-3
6.829860700E-2,-1.374406274E-3,3.054236295E-3,6.108472589E-4,3.404480331E-3
7.071303400E-2,-7.635590737E-4,1.832541777E-3,-1.221694518E-3,2.331044684E-3
7.312746100E-2,5.344913807E-4,-0.000000000E0,6.108472589E-4,8.116744481E-4
7.554183600E-2,5.344913807E-4,-2.443389036E-3,6.108472589E-4,2.574677725E-3
7.795626300E-2,5.344913807E-4,-3.054236295E-3,1.221694518E-3,3.332653279E-3
8.037069000E-2,-1.374406274E-3,-2.443389036E-3,1.832541777E-3,3.349231546E-3
8.278511700E-2,-1.527118147E-4,-3.054236295E-3,-0.000000000E0,3.058051707E-3
8.519954400E-2,-1.527118147E-4,-2.443389036E-3,-6.108472589E-4,2.523213279E-3
8.761397100E-2,-1.527118147E-4,-0.000000000E0,6.108472589E-4,6.296469424E-4
9.002839900E-2,-1.527118147E-4,2.443389036E-3,6.108472589E-4,2.523213279E-3
9.244282600E-2,-1.527118147E-4,6.108472589E-4,6.108472589E-4,8.772625866E-4
9.485720100E-2,5.344913807E-4,1.221694518E-3,1.221694518E-3,1.808523162E-3
9.727162800E-2,5.344913807E-4,1.832541777E-3,-0.000000000E0,1.908897692E-3
9.968605500E-2,-1.527118147E-4,1.221694518E-3,-0.000000000E0,1.231202012E-3
1.021004820E-1,1.145338640E-3,-0.000000000E0,6.108472589E-4,1.298050451E-3
1.045149090E-1,1.145338640E-3,-6.108472589E-4,6.108472589E-4,1.434597277E-3
1.069293360E-1,-7.635590737E-4,-1.221694518E-3,-6.108472589E-4,1.564830447E-3
1.093437110E-1,-1.374406274E-3,-2.443389036E-3,-0.000000000E0,2.803416235E-3
1.117581380E-1,5.344913807E-4,-3.054236295E-3,6.108472589E-4,3.160249160E-3
1.141725650E-1,-1.527118147E-4,-1.221694518E-3,6.108472589E-4,1.374406333E-3
1.165869920E-1,-1.527118147E-4,-0.000000000E0,-0.000000000E0,1.527118147E-4
1.190014190E-1,5.344913807E-4,-0.000000000E0,6.108472589E-4,8.116744481E-4
1.214158460E-1,-7.635590737E-4,-0.000000000E0,-0.000000000E0,7.635590737E-4
1.238302740E-1,-1.527118147E-4,1.832541777E-3,6.108472589E-4,1.937695703E-3
1.262446490E-1,1.145338640E-3,1.832541777E-3,-0.000000000E0,2.161020584E-3
1.286590760E-1,-1.527118147E-4,1.221694518E-3,-0.000000000E0,1.231202012E-3
1.310735030E-1,5.344913807E-4,2.443389036E-3,-0.000000000E0,2.501165931E-3
1.334879300E-1,-1.527118147E-4,1.221694518E-3,6.108472589E-4,1.374406333E-3
1.359023570E-1,-7.635590737E-4,6.108472589E-4,-6.108472589E-4,1.152948918E-3
1.383167840E-1,-1.527118147E-4,-6.108472589E-4,1.221694518E-3,1.374406333E-3
1.407312110E-1,-1.527118147E-4,6.108472589E-4,6.108472589E-4,8.772625866E-4
1.431456380E-1,5.344913807E-4,-1.221694518E-3,6.108472589E-4,1.466749094E-3
1.455600130E-1,-7.635590737E-4,-1.221694518E-3,6.108472589E-4,1.564830447E-3
1.479744400E-1,-1.527118147E-4,-1.221694518E-3,6.108472589E-4,1.374406333E-3
1.503888670E-1,-1.374406274E-3,6.108472589E-4,-0.000000000E0,1.504036895E-3
1.528032940E-1,-7.635590737E-4,6.108472589E-4,-0.000000000E0,9.778327223E-4
1.552177210E-1,-1.527118147E-4,6.108472589E-4,6.108472589E-4,8.772625866E-4
1.576321490E-1,-1.527118147E-4,6.108472589E-4,-0.000000000E0,6.296469424E-4
1.600465760E-1,5.344913807E-4,1.832541777E-3,6.108472589E-4,2.004251674E-3
1.624609510E-1,1.145338640E-3,1.221694518E-3,-6.108472589E-4,1.782546624E-3
1.648753780E-1,5.344913807E-4,-6.108472589E-4,-1.221694518E-3,1.466749094E-3
1.672898050E-1,-1.985253533E-3,6.108472589E-4,-6.108472589E-4,2.165063588E-3
1.697042320E-1,-7.635590737E-4,-0.000000000E0,6.108472589E-4,9.778327223E-4
1.721186590E-1,-7.635590737E-4,-1.221694518E-3,-1.221694518E-3,1.888940827E-3
1.745330860E-1,-7.635590737E-4,-1.221694518E-3,-1.221694518E-3,1.888940827E-3
1.769475130E-1,5.344913807E-4,-6.108472589E-4,-0.000000000E0,8.116744481E-4
1.793618880E-1,-7.635590737E-4,-1.221694518E-3,-6.108472589E-4,1.564830447E-3
1.817763150E-1,-1.527118147E-4,-0.000000000E0,1.221694518E-3,1.231202012E-3
1.841907420E-1,-1.527118147E-4,-0.000000000E0,6.108472589E-4,6.296469424E-4
1.866051690E-1,5.344913807E-4,-0.000000000E0,1.221694518E-3,1.333498606E-3
1.890195960E-1,-1.527118147E-4,1.221694518E-3,-0.000000000E0,1.231202012E-3
1.914340240E-1,5.344913807E-4,2.443389036E-3,-0.000000000E0,2.501165931E-3
1.938484510E-1,-7.635590737E-4,1.221694518E-3,-1.832541777E-3,2.331044684E-3
1.962628780E-1,-7.635590737E-4,-0.000000000E0,-6.108472589E-4,9.778327223E-4
1.986772530E-1,5.344913807E-4,6.108472589E-4,1.221694518E-3,1.466749094E-3
2.010916800E-1,5.344913807E-4,-0.000000000E0,6.108472589E-4,8.116744481E-4
2.035061070E-1,5.344913807E-4,6.108472589E-4,-0.000000000E0,8.116744481E-4
2.059205340E-1,-1.527118147E-4,6.108472589E-4,-0.000000000E0,6.296469424E-4
2.083349610E-1,-1.527118147E-4,1.221694518E-3,-6.108472589E-4,1.374406333E-3
2.107493880E-1,-1.527118147E-4,-0.000000000E0,6.108472589E-4,6.296469424E-4
2.131638150E-1,-1.527118147E-4,-0.000000000E0,6.108472589E-4,6.296469424E-4
2.155781900E-1,-7.635590737E-4,-0.000000000E0,-6.108472589E-4,9.778327223E-4
2.179926170E-1,-1.527118147E-4,1.221694518E-3,1.832541777E-3,2.207729095E-3
2.204070440E-1,-1.527118147E-4,1.832541777E-3,6.108472589E-4,1.937695703E-3
2.228214710E-1,5.344913807E-4,6.108472589E-4,-0.000000000E0,8.116744481E-4
2.252358990E-1,1.145338640E-3,-0.000000000E0,-0.000000000E0,1.145338640E-3
2.276503260E-1,-1.527118147E-4,-0.000000000E0,1.221694518E-3,1.231202012E-3
2.300647530E-1,1.145338640E-3,-0.000000000E0,-0.000000000E0,1.145338640E-3
2.324791280E-1,5.344913807E-4,2.443389036E-3,1.221694518E-3,2.783589142E-3
2.348935550E-1,-1.527118147E-4,1.221694518E-3,1.221694518E-3,1.734472798E-3
2.373079820E-1,-7.635590737E-4,-0.000000000E0,-0.000000000E0,7.635590737E-4
2.397224090E-1,-7.635590737E-4,-1.832541777E-3,2.443389036E-3,3.148234712E-3
2.421368360E-1,5.344913807E-4,1.221694518E-3,-0.000000000E0,1.333498606E-3
2.445512630E-1,-1.527118147E-4,6.108472589E-4,-0.000000000E0,6.296469424E-4
2.469656900E-1,-7.635590737E-4,-0.000000000E0,-0.000000000E0,7.635590737E-4
2.493800650E-1,5.344913807E-4,1.221694518E-3,1.221694518E-3,1.808523162E-3
2.517944920E-1,-1.527118147E-4,6.108472589E-4,1.221694518E-3,1.374406333E-3
2.542089190E-1,-1.527118147E-4,1.221694518E-3,6.108472589E-4,1.374406333E-3
2.566233460E-1,-1.527118147E-4,-6.108472589E-4,-0.000000000E0,6.296469424E-4
2.590377740E-1,5.344913807E-4,-6.108472589E-4,-6.108472589E-4,1.015849292E-3
2.614522010E-1,-1.985253533E-3,-0.000000000E0,6.108472589E-4,2.077105189E-3
2.638666280E-1,-1.374406274E-3,1.221694518E-3,-0.000000000E0,1.838893717E-3
2.662810030E-1,-1.527118147E-4,-0.000000000E0,1.221694518E-3,1.231202012E-3
2.686954300E-1,1.145338640E-3,-0.000000000E0,1.221694518E-3,1.674615805E-3
2.711098570E-1,-1.527118147E-4,-6.108472589E-4,6.108472589E-4,8.772625866E-4
2.735242840E-1,-7.635590737E-4,6.108472589E-4,1.832541777E-3,2.077105244E-3
2.759387110E-1,-1.374406274E-3,-1.221694518E-3,-0.000000000E0,1.838893717E-3
2.783531380E-1,-1.527118147E-4,-6.108472589E-4,-0.000000000E0,6.296469424E-4
2.807675650E-1,5.344913807E-4,-0.000000000E0,6.108472589E-4,8.116744481E-4
2.831819400E-1,5.344913807E-4,1.832541777E-3,6.108472589E-4,2.004251674E-3
2.855963670E-1,-1.527118147E-4,1.221694518E-3,-0.000000000E0,1.231202012E-3
2.880107940E-1,5.344913807E-4,1.221694518E-3,-0.000000000E0,1.333498606E-3
2.904252210E-1,1.145338640E-3,-0.000000000E0,-0.000000000E0,1.145338640E-3
2.928396490E-1,-1.527118147E-4,-0.000000000E0,1.221694518E-3,1.231202012E-3
2.952540760E-1,-1.527118147E-4,-0.000000000E0,1.221694518E-3,1.231202012E-3
2.976685030E-1,-1.527118147E-4,-0.000000000E0,1.221694518E-3,1.231202012E-3
3.000828780E-1,5.344913807E-4,-0.000000000E0,1.221694518E-3,1.333498606E-3
3.024973050E-1,-1.527118147E-4,6.108472589E-4,1.221694518E-3,1.374406333E-3
3.049117320E-1,-1.527118147E-4,-0.000000000E0,-6.108472589E-4,6.296469424E-4
3.073261590E-1,5.344913807E-4,6.108472589E-4,6.108472589E-4,1.015849292E-3
3.097405860E-1,1.145338640E-3,-0.000000000E0,-0.000000000E0,1.145338640E-3
3.121550130E-1,-1.374406274E-3,-0.000000000E0,-0.000000000E0,1.374406274E-3
3.145694400E-1,-1.527118147E-4,6.108472589E-4,1.221694518E-3,1.374406333E-3
3.169838150E-1,5.344913807E-4,6.108472589E-4,-0.000000000E0,8.116744481E-4
3.193982420E-1,5.344913807E-4,6.108472589E-4,-0.000000000E0,8.116744481E-4
3.218126690E-1,5.344913807E-4,-0.000000000E0,6.108472589E-4,8.116744481E-4
3.242270960E-1,-7.635590737E-4,-0.000000000E0,6.108472589E-4,9.778327223E-4
3.266415240E-1,-1.527118147E-4,-1.832541777E-3,2.443389036E-3,3.058051707E-3
3.290559510E-1,-7.635590737E-4,-1.832541777E-3,-0.000000000E0,1.985253592E-3
3.314703780E-1,-1.985253533E-3,-6.108472589E-4,1.221694518E-3,2.409751742E-3
3.338848050E-1,-7.635590737E-4,-6.108472589E-4,6.108472589E-4,1.152948918E-3
3.362991800E-1,-1.374406274E-3,6.108472589E-4,-6.108472589E-4,1.623348809E-3
3.387136070E-1,-1.527118147E-4,6.108472589E-4,6.108472589E-4,8.772625866E-4
3.411280340E-1,-1.527118147E-4,1.221694518E-3,-0.000000000E0,1.231202012E-3
3.435424610E-1,-1.985253533E-3,1.221694518E-3,6.108472589E-4,2.409751742E-3
3.459568880E-1,-1.527118147E-4,-6.108472589E-4,6.108472589E-4,8.772625866E-4
3.483713150E-1,-7.635590737E-4,6.108472589E-4,6.108472589E-4,1.152948918E-3
3.507857420E-1,5.344913807E-4,-0.000000000E0,-6.108472589E-4,8.116744481E-4
3.532001170E-1,5.344913807E-4,1.221694518E-3,-1.221694518E-3,1.808523162E-3
3.556145440E-1,-7.635590737E-4,-0.000000000E0,-0.000000000E0,7.635590737E-4
3.580289710E-1,-1.374406274E-3,-0.000000000E0,6.108472589E-4,1.504036895E-3
3.604433990E-1,-1.374406274E-3,6.108472589E-4,6.108472589E-4,1.623348809E-3
3.628578260E-1,5.344913807E-4,6.108472589E-4,-0.000000000E0,8.116744481E-4
3.652722530E-1,-7.635590737E-4,-0.000000000E0,-0.000000000E0,7.635590737E-4
3.676866800E-1,-1.527118147E-4,-0.000000000E0,6.108472589E-4,6.296469424E-4
3.701010550E-1,1.145338640E-3,-6.108472589E-4,-0.000000000E0,1.298050451E-3
3.725154820E-1,-1.527118147E-4,-0.000000000E0,6.108472589E-4,6.296469424E-4
3.749299090E-1,-1.527118147E-4,6.108472589E-4,-6.108472589E-4,8.772625866E-4
3.773443360E-1,1.756185899E-3,-0.000000000E0,-0.000000000E0,1.756185899E-3
3.797587630E-1,-1.527118147E-4,-0.000000000E0,-0.000000000E0,1.527118147E-4
3.821731900E-1,-7.635590737E-4,-6.108472589E-4,-0.000000000E0,9.778327223E-4
3.845875650E-1,-1.527118147E-4,1.221694518E-3,6.108472589E-4,1.374406333E-3
3.870019920E-1,5.344913807E-4,-0.000000000E0,-1.221694518E-3,1.333498606E-3
3.894164190E-1,-7.635590737E-4,6.108472589E-4,-0.000000000E0,9.778327223E-4
3.918308460E-1,-7.635590737E-4,-0.000000000E0,1.832541777E-3,1.985253592E-3
3.942452740E-1,-7.635590737E-4,-1.221694518E-3,6.108472589E-4,1.564830447E-3
3.966597010E-1,-1.374406274E-3,6.108472589E-4,1.221694518E-3,1.937695661E-3
3.990741280E-1,-7.635590737E-4,-0.000000000E0,-1.221694518E-3,1.440680379E-3
4.014885030E-1,5.344913807E-4,-6.108472589E-4,-6.108472589E-4,1.015849292E-3
4.039029300E-1,1.145338640E-3,-0.000000000E0,-6.108472589E-4,1.298050451E-3
4.063173570E-1,5.344913807E-4,6.108472589E-4,1.221694518E-3,1.466749094E-3
4.087317840E-1,5.344913807E-4,1.221694518E-3,-6.108472589E-4,1.466749094E-3
4.111462110E-1,-1.527118147E-4,6.108472589E-4,1.221694518E-3,1.374406333E-3
4.135606380E-1,5.344913807E-4,6.108472589E-4,6.108472589E-4,1.015849292E-3
4.159750650E-1,-1.527118147E-4,-1.221694518E-3,1.221694518E-3,1.734472798E-3
4.183894400E-1,-7.635590737E-4,-0.000000000E0,6.108472589E-4,9.778327223E-4
4.208038670E-1,-1.374406274E-3,-0.000000000E0,-0.000000000E0,1.374406274E-3
4.232182940E-1,1.145338640E-3,-0.000000000E0,-1.221694518E-3,1.674615805E-3
4.256327210E-1,5.344913807E-4,6.108472589E-4,-0.000000000E0,8.116744481E-4
4.280471490E-1,-1.527118147E-4,-6.108472589E-4,-0.000000000E0,6.296469424E-4
4.304615760E-1,1.145338640E-3,-0.000000000E0,-6.108472589E-4,1.298050451E-3
4.328760030E-1,5.344913807E-4,1.832541777E-3,6.108472589E-4,2.004251674E-3
4.352904300E-1,-7.635590737E-4,6.108472589E-4,6.108472589E-4,1.152948918E-3
4.377048050E-1,-7.635590737E-4,-6.108472589E-4,-6.108472589E-4,1.152948918E-3
4.401192320E-1,1.145338640E-3,-0.000000000E0,-0.000000000E0,1.145338640E-3
4.425336590E-1,1.145338640E-3,6.108472589E-4,-0.000000000E0,1.298050451E-3
4.449480860E-1,-7.635590737E-4,6.108472589E-4,-0.000000000E0,9.778327223E-4
4.473625130E-1,-1.527118147E-4,-1.221694518E-3,6.108472589E-4,1.374406333E-3
4.497769400E-1,5.344913807E-4,-0.000000000E0,-0.000000000E0,5.344913807E-4
4.521913670E-1,5.344913807E-4,-6.108472589E-4,6.108472589E-4,1.015849292E-3
4.546057420E-1,-7.635590737E-4,-0.000000000E0,-0.000000000E0,7.635590737E-4
4.570201690E-1,1.145338640E-3,-0.000000000E0,-0.000000000E0,1.145338640E-3
4.594345960E-1,-1.527118147E-4,-0.000000000E0,-0.000000000E0,1.527118147E-4
4.618490240E-1,1.756185899E-3,2.443389036E-3,6.108472589E-4,3.070419070E-3
4.642634510E-1,1.756185899E-3,6.108472589E-4,2.443389036E-3,3.070419070E-3
4.666778780E-1,5.344913807E-4,-6.108472589E-4,1.832541777E-3,2.004251674E-3
4.690923050E-1,-1.527118147E-4,-0.000000000E0,-0.000000000E0,1.527118147E-4
4.715066800E-1,-7.635590737E-4,6.108472589E-4,-0.000000000E0,9.778327223E-4
4.739211070E-1,-1.985253533E-3,6.108472589E-4,6.108472589E-4,2.165063588E-3
4.763355340E-1,-7.635590737E-4,6.108472589E-4,1.832541777E-3,2.077105244E-3
4.787499610E-1,1.145338640E-3,6.108472589E-4,6.108472589E-4,1.434597277E-3
4.811643880E-1,-1.527118147E-4,6.108472589E-4,-0.000000000E0,6.296469424E-4
4.835788150E-1,-1.527118147E-4,-1.221694518E-3,-0.000000000E0,1.231202012E-3
4.859931900E-1,-1.374406274E-3,-6.108472589E-4,-0.000000000E0,1.504036895E-3
4.884076170E-1,-7.635590737E-4,-0.000000000E0,1.221694518E-3,1.440680379E-3
4.908220440E-1,-7.635590737E-4,-6.108472589E-4,-0.000000000E0,9.778327223E-4
4.932364710E-1,1.145338640E-3,-1.221694518E-3,-0.000000000E0,1.674615805E-3
4.956508990E-1,-1.527118147E-4,-6.108472589E-4,-6.108472589E-4,8.772625866E-4
4.980653260E-1,-1.374406274E-3,6.108472589E-4,6.108472589E-4,1.623348809E-3
5.004797530E-1,-1.527118147E-4,-0.000000000E0,-6.108472589E-4,6.296469424E-4
5.028941280E-1,-1.527118147E-4,-6.108472589E-4,-0.000000000E0,6.296469424E-4
5.053085550E-1,-1.527118147E-4,-1.221694518E-3,-0.000000000E0,1.231202012E-3
5.077229820E-1,-1.527118147E-4,-0.000000000E0,1.221694518E-3,1.231202012E-3
5.101374090E-1,-1.374406274E-3,6.108472589E-4,1.221694518E-3,1.937695661E-3
5.125518360E-1,-7.635590737E-4,-0.000000000E0,6.108472589E-4,9.778327223E-4
5.149662630E-1,2.367033157E-3,1.832541777E-3,-0.000000000E0,2.993502185E-3
5.173806900E-1,1.145338640E-3,-6.108472589E-4,-6.108472589E-4,1.434597277E-3
5.197950650E-1,5.344913807E-4,-0.000000000E0,6.108472589E-4,8.116744481E-4
5.222094920E-1,1.145338640E-3,-0.000000000E0,-6.108472589E-4,1.298050451E-3
5.246239190E-1,-7.635590737E-4,1.221694518E-3,6.108472589E-4,1.564830447E-3
5.270383460E-1,-1.374406274E-3,-0.000000000E0,-6.108472589E-4,1.504036895E-3
5.294527740E-1,-1.527118147E-4,-1.221694518E-3,-0.000000000E0,1.231202012E-3
5.318672010E-1,-7.635590737E-4,6.108472589E-4,-6.108472589E-4,1.152948918E-3
5.342816280E-1,-7.635590737E-4,6.108472589E-4,6.108472589E-4,1.152948918E-3
5.366960030E-1,-1.374406274E-3,-0.000000000E0,6.108472589E-4,1.504036895E-3
5.391104300E-1,-1.527118147E-4,-0.000000000E0,6.108472589E-4,6.296469424E-4
5.415248570E-1,1.145338640E-3,1.221694518E-3,1.832541777E-3,2.482447876E-3
5.439392840E-1,-1.527118147E-4,-1.221694518E-3,2.443389036E-3,2.736057085E-3
5.463537110E-1,-1.374406274E-3,-6.108472589E-4,1.221694518E-3,1.937695661E-3
5.487681380E-1,-1.374406274E-3,-6.108472589E-4,6.108472589E-4,1.623348809E-3
5.511825650E-1,-1.527118147E-4,-1.221694518E-3,-6.108472589E-4,1.374406333E-3
5.535969400E-1,-7.635590737E-4,-6.108472589E-4,-0.000000000E0,9.778327223E-4
5.560113670E-1,-1.527118147E-4,6.108472589E-4,-1.221694518E-3,1.374406333E-3
5.584257940E-1,-1.527118147E-4,-0.000000000E0,6.108472589E-4,6.296469424E-4
5.608402210E-1,-7.635590737E-4,-6.108472589E-4,1.832541777E-3,2.077105244E-3
5.632546490E-1,5.344913807E-4,-0.000000000E0,6.108472589E-4,8.116744481E-4
5.656690760E-1,-1.527118147E-4,-0.000000000E0,6.108472589E-4,6.296469424E-4
5.680834510E-1,-7.635590737E-4,1.832541777E-3,-0.000000000E0,1.985253592E-3
5.704978780E-1,-1.527118147E-4,-0.000000000E0,-0.000000000E0,1.527118147E-4
5.729123050E-1,-1.527118147E-4,-6.108472589E-4,-0.000000000E0,6.296469424E-4
5.753267320E-1,-1.527118147E-4,-0.000000000E0,6.108472589E-4,6.296469424E-4
5.777411590E-1,5.344913807E-4,-0.000000000E0,6.108472589E-4,8.116744481E-4
5.801555860E-1,1.756185899E-3,-0.000000000E0,-6.108472589E-4,1.859387879E-3
5.825700130E-1,1.145338640E-3,6.108472589E-4,-0.000000000E0,1.298050451E-3
5.849844400E-1,-7.635590737E-4,-0.000000000E0,6.108472589E-4,9.778327223E-4
5.873988150E-1,-1.374406274E-3,1.221694518E-3,1.221694518E-3,2.207729059E-3
5.898132420E-1,5.344913807E-4,6.108472589E-4,6.108472589E-4,1.015849292E-3
5.922276690E-1,-1.527118147E-4,1.221694518E-3,6.108472589E-4,1.374406333E-3
5.946420960E-1,-1.527118147E-4,2.443389036E-3,-1.832541777E-3,3.058051707E-3
5.970565240E-1,-7.635590737E-4,1.221694518E-3,1.221694518E-3,1.888940827E-3
5.994709510E-1,5.344913807E-4,6.108472589E-4,-0.000000000E0,8.116744481E-4
6.018853780E-1,5.344913807E-4,6.108472589E-4,6.108472589E-4,1.015849292E-3
6.042997530E-1,-1.527118147E-4,6.108472589E-4,-0.000000000E0,6.296469424E-4
6.067141800E-1,-7.635590737E-4,6.108472589E-4,1.221694518E-3,1.564830447E-3
6.091286070E-1,5.344913807E-4,1.221694518E-3,1.221694518E-3,1.808523162E-3
6.115430340E-1,1.145338640E-3,-0.000000000E0,2.443389036E-3,2.698508955E-3
6.139574610E-1,-1.527118147E-4,-0.000000000E0,6.108472589E-4,6.296469424E-4
6.163718880E-1,-1.527118147E-4,6.108472589E-4,1.221694518E-3,1.374406333E-3
6.187862630E-1,-1.527118147E-4,6.108472589E-4,6.108472589E-4,8.772625866E-4
6.212006900E-1,5.344913807E-4,6.108472589E-4,-0.000000000E0,8.116744481E-4
6.236151170E-1,-7.635590737E-4,6.108472589E-4,-0.000000000E0,9.778327223E-4
6.260295440E-1,-7.635590737E-4,6.108472589E-4,6.108472589E-4,1.152948918E-3
6.284439710E-1,-1.527118147E-4,-1.832541777E-3,-0.000000000E0,1.838893760E-3
6.308583990E-1,5.344913807E-4,-6.108472589E-4,6.108472589E-4,1.015849292E-3
6.332728260E-1,-1.527118147E-4,6.108472589E-4,6.108472589E-4,8.772625866E-4
6.356872010E-1,5.344913807E-4,6.108472589E-4,-0.000000000E0,8.116744481E-4
6.381016280E-1,-1.527118147E-4,-0.000000000E0,3.054236295E-3,3.058051707E-3
6.405160550E-1,-7.635590737E-4,1.221694518E-3,6.108472589E-4,1.564830447E-3
6.429304820E-1,-7.635590737E-4,6.108472589E-4,1.832541777E-3,2.077105244E-3
6.453449090E-1,-7.635590737E-4,-0.000000000E0,-0.000000000E0,7.635590737E-4
6.477593360E-1,-1.527118147E-4,-6.108472589E-4,1.221694518E-3,1.374406333E-3
6.501737630E-1,-1.527118147E-4,-0.000000000E0,-0.000000000E0,1.527118147E-4
6.525881380E-1,1.145338640E-3,6.108472589E-4,-0.000000000E0,1.298050451E-3
6.550025650E-1,5.344913807E-4,6.108472589E-4,-0.000000000E0,8.116744481E-4
6.574169920E-1,5.344913807E-4,6.108472589E-4,-6.108472589E-4,1.015849292E-3
6.598314190E-1,5.344913807E-4,6.108472589E-4,-0.000000000E0,8.116744481E-4
6.622458460E-1,-1.527118147E-4,6.108472589E-4,-6.108472589E-4,8.772625866E-4
6.646602740E-1,-7.635590737E-4,6.108472589E-4,6.108472589E-4,1.152948918E-3
6.670747010E-1,-1.527118147E-4,-0.000000000E0,-0.000000000E0,1.527118147E-4
6.694890760E-1,-7.635590737E-4,-1.221694518E-3,1.832541777E-3,2.331044684E-3
6.719035030E-1,-1.527118147E-4,-6.108472589E-4,6.108472589E-4,8.772625866E-4
6.743179300E-1,1.145338640E-3,-6.108472589E-4,-6.108472589E-4,1.434597277E-3
6.767323570E-1,-1.527118147E-4,1.832541777E-3,-0.000000000E0,1.838893760E-3
6.791467840E-1,-1.374406274E-3,1.221694518E-3,1.221694518E-3,2.207729059E-3
6.815612110E-1,5.344913807E-4,-6.108472589E-4,6.108472589E-4,1.015849292E-3
6.839755860E-1,-7.635590737E-4,-1.221694518E-3,1.221694518E-3,1.888940827E-3
6.863900130E-1,-1.527118147E-4,-6.108472589E-4,6.108472589E-4,8.772625866E-4
6.888044400E-1,5.344913807E-4,6.108472589E-4,1.832541777E-3,2.004251674E-3
6.912188670E-1,-1.374406274E-3,6.108472589E-4,6.108472589E-4,1.623348809E-3
6.936332940E-1,5.344913807E-4,6.108472589E-4,-0.000000000E0,8.116744481E-4
6.960477210E-1,-1.527118147E-4,6.108472589E-4,-0.000000000E0,6.296469424E-4
6.984621490E-1,-1.374406274E-3,-6.108472589E-4,6.108472589E-4,1.623348809E-3
7.008765240E-1,-1.527118147E-4,-6.108472589E-4,-1.221694518E-3,1.374406333E-3
7.032909510E-1,5.344913807E-4,-0.000000000E0,-0.000000000E0,5.344913807E-4
7.057053780E-1,1.145338640E-3,-6.108472589E-4,-0.000000000E0,1.298050451E-3
7.081198050E-1,-7.635590737E-4,-6.108472589E-4,-1.832541777E-3,2.077105244E-3
7.105342320E-1,-7.635590737E-4,6.108472589E-4,6.108472589E-4,1.152948918E-3
7.129486590E-1,5.344913807E-4,-6.108472589E-4,-0.000000000E0,8.116744481E-4
7.153630860E-1,-7.635590737E-4,-6.108472589E-4,1.221694518E-3,1.564830447E-3
7.177774610E-1,1.145338640E-3,-6.108472589E-4,-0.000000000E0,1.298050451E-3
7.201918880E-1,5.344913807E-4,-6.108472589E-4,6.108472589E-4,1.015849292E-3
7.226063150E-1,-7.635590737E-4,-1.832541777E-3,-6.108472589E-4,2.077105244E-3
7.250207420E-1,-1.374406274E-3,-0.000000000E0,1.221694518E-3,1.838893717E-3
7.274351690E-1,-1.527118147E-4,1.221694518E-3,6.108472589E-4,1.374406333E-3
7.298495960E-1,5.344913807E-4,-0.000000000E0,2.443389036E-3,2.501165931E-3
7.322639710E-1,-1.527118147E-4,-1.221694518E-3,1.221694518E-3,1.734472798E-3
7.346783990E-1,-1.985253533E-3,-1.221694518E-3,1.221694518E-3,2.631787716E-3
7.370928260E-1,-1.985253533E-3,1.221694518E-3,-0.000000000E0,2.331044634E-3
7.395072530E-1,-7.635590737E-4,6.108472589E-4,-6.108472589E-4,1.152948918E-3
7.419216800E-1,1.145338640E-3,-0.000000000E0,-6.108472589E-4,1.298050451E-3
7.443361070E-1,-7.635590737E-4,-0.000000000E0,-0.000000000E0,7.635590737E-4
7.467505340E-1,-7.635590737E-4,6.108472589E-4,-1.221694518E-3,1.564830447E-3
7.491649090E-1,5.344913807E-4,6.108472589E-4,-6.108472589E-4,1.015849292E-3
7.515793360E-1,-7.635590737E-4,-6.108472589E-4,-0.000000000E0,9.778327223E-4
7.539937630E-1,5.344913807E-4,-0.000000000E0,-6.108472589E-4,8.116744481E-4
7.564081900E-1,-7.635590737E-4,6.108472589E-4,-6.108472589E-4,1.152948918E-3
7.588226170E-1,-7.635590737E-4,6.108472589E-4,-1.221694518E-3,1.564830447E-3
7.612370440E-1,-1.527118147E-4,-6.108472589E-4,-6.108472589E-4,8.772625866E-4
7.636514710E-1,-7.635590737E-4,-0.000000000E0,-0.000000000E0,7.635590737E-4
7.660658460E-1,5.344913807E-4,-2.443389036E-3,-0.000000000E0,2.501165931E-3
7.684802740E-1,5.344913807E-4,-6.108472589E-4,6.108472589E-4,1.015849292E-3
7.708947010E-1,1.145338640E-3,-6.108472589E-4,6.108472589E-4,1.434597277E-3
7.733091280E-1,-7.635590737E-4,-0.000000000E0,1.221694518E-3,1.440680379E-3
7.757235550E-1,5.344913807E-4,6.108472589E-4,1.221694518E-3,1.466749094E-3
7.781379820E-1,1.756185899E-3,-6.108472589E-4,1.832541777E-3,2.610657513E-3
7.805524090E-1,5.344913807E-4,-6.108472589E-4,-0.000000000E0,8.116744481E-4
7.829667840E-1,-1.527118147E-4,-0.000000000E0,6.108472589E-4,6.296469424E-4
7.853812110E-1,5.344913807E-4,-6.108472589E-4,-0.000000000E0,8.116744481E-4
7.877956380E-1,1.145338640E-3,-1.221694518E-3,1.221694518E-3,2.072890636E-3
7.902100650E-1,5.344913807E-4,6.108472589E-4,-0.000000000E0,8.116744481E-4
7.926244920E-1,-1.527118147E-4,-1.221694518E-3,1.221694518E-3,1.734472798E-3
7.950389190E-1,1.145338640E-3,-1.832541777E-3,6.108472589E-4,2.245694622E-3
7.974533460E-1,5.344913807E-4,-6.108472589E-4,-0.000000000E0,8.116744481E-4
7.998677210E-1,-7.635590737E-4,6.108472589E-4,-0.000000000E0,9.778327223E-4
8.022821490E-1,5.344913807E-4,6.108472589E-4,6.108472589E-4,1.015849292E-3
8.046965760E-1,-7.635590737E-4,6.108472589E-4,-0.000000000E0,9.778327223E-4
8.071110030E-1,5.344913807E-4,6.108472589E-4,1.221694518E-3,1.466749094E-3
8.095254300E-1,-1.527118147E-4,6.108472589E-4,-6.108472589E-4,8.772625866E-4
8.119398570E-1,-7.635590737E-4,1.221694518E-3,-6.108472589E-4,1.564830447E-3
8.143542320E-1,-1.527118147E-4,-0.000000000E0,1.221694518E-3,1.231202012E-3
8.167686590E-1,1.756185899E-3,-0.000000000E0,6.108472589E-4,1.859387879E-3
8.191830860E-1,1.145338640E-3,-0.000000000E0,6.108472589E-4,1.298050451E-3
8.215975130E-1,-1.527118147E-4,-6.108472589E-4,-0.000000000E0,6.296469424E-4
8.240119400E-1,5.344913807E-4,1.221694518E-3,6.108472589E-4,1.466749094E-3
8.264263670E-1,-1.527118147E-4,-0.000000000E0,6.108472589E-4,6.296469424E-4
8.288407420E-1,-7.635590737E-4,-6.108472589E-4,-0.000000000E0,9.778327223E-4
8.312551690E-1,-7.635590737E-4,-0.000000000E0,6.108472589E-4,9.778327223E-4
8.336695960E-1,1.145338640E-3,6.108472589E-4,-6.108472589E-4,1.434597277E-3
8.360840240E-1,5.344913807E-4,1.221694518E-3,6.108472589E-4,1.466749094E-3
8.384984510E-1,5.344913807E-4,-0.000000000E0,1.832541777E-3,1.908897692E-3
8.409128780E-1,5.344913807E-4,6.108472589E-4,1.221694518E-3,1.466749094E-3
8.433273050E-1,-7.635590737E-4,-0.000000000E0,-6.108472589E-4,9.778327223E-4
8.457416800E-1,-1.527118147E-4,1.221694518E-3,6.108472589E-4,1.374406333E-3
8.481561070E-1,5.344913807E-4,-6.108472589E-4,-6.108472589E-4,1.015849292E-3
8.505705340E-1,1.145338640E-3,6.108472589E-4,-6.108472589E-4,1.434597277E-3
8.529849610E-1,5.344913807E-4,6.108472589E-4,-0.000000000E0,8.116744481E-4
8.553993880E-1,-1.527118147E-4,6.108472589E-4,6.108472589E-4,8.772625866E-4
8.578138150E-1,-1.527118147E-4,-0.000000000E0,6.108472589E-4,6.296469424E-4
8.602282420E-1,5.344913807E-4,-6.108472589E-4,1.221694518E-3,1.466749094E-3
8.626426690E-1,1.145338640E-3,-6.108472589E-4,6.108472589E-4,1.434597277E-3
8.650570440E-1,1.145338640E-3,-6.108472589E-4,6.108472589E-4,1.434597277E-3
8.674714710E-1,-7.635590737E-4,-0.000000000E0,-6.108472589E-4,9.778327223E-4
8.698858990E-1,-1.527118147E-4,1.221694518E-3,1.221694518E-3,1.734472798E-3
8.723003260E-1,-7.635590737E-4,6.108472589E-4,1.832541777E-3,2.077105244E-3
8.747147530E-1,1.145338640E-3,-6.108472589E-4,6.108472589E-4,1.434597277E-3
8.771291280E-1,1.145338640E-3,-6.108472589E-4,6.108472589E-4,1.434597277E-3
8.795435550E-1,-1.527118147E-4,-0.000000000E0,6.108472589E-4,6.296469424E-4
8.819579820E-1,-1.527118147E-4,1.221694518E-3,-6.108472589E-4,1.374406333E-3
8.843724090E-1,1.145338640E-3,1.832541777E-3,-0.000000000E0,2.161020584E-3
8.867868360E-1,-1.527118147E-4,1.221694518E-3,1.221694518E-3,1.734472798E-3
8.892012630E-1,-7.635590737E-4,-1.221694518E-3,6.108472589E-4,1.564830447E-3
8.916156900E-1,-1.527118147E-4,-0.000000000E0,6.108472589E-4,6.296469424E-4
8.940300650E-1,-1.527118147E-4,-0.000000000E0,1.221694518E-3,1.231202012E-3
8.964444920E-1,5.344913807E-4,-6.108472589E-4,-6.108472589E-4,1.015849292E-3
8.988589190E-1,-1.527118147E-4,1.221694518E-3,1.221694518E-3,1.734472798E-3
9.012733460E-1,-1.527118147E-4,1.832541777E-3,6.108472589E-4,1.937695703E-3
9.036877740E-1,5.344913807E-4,-0.000000000E0,-0.000000000E0,5.344913807E-4
9.061022010E-1,1.145338640E-3,-0.000000000E0,6.108472589E-4,1.298050451E-3
9.085165760E-1,5.344913807E-4,-6.108472589E-4,1.832541777E-3,2.004251674E-3
9.109310030E-1,-1.985253533E-3,6.108472589E-4,1.221694518E-3,2.409751742E-3
9.133454300E-1,5.344913807E-4,1.221694518E-3,6.108472589E-4,1.466749094E-3
9.157598570E-1,1.756185899E-3,-0.000000000E0,1.221694518E-3,2.139328494E-3
9.181742840E-1,5.344913807E-4,-1.221694518E-3,1.221694518E-3,1.808523162E-3
9.205887110E-1,-1.527118147E-4,-0.000000000E0,1.221694518E-3,1.231202012E-3
9.230031380E-1,-1.374406274E-3,-6.108472589E-4,-1.221694518E-3,1.937695661E-3
9.254175130E-1,-1.527118147E-4,-0.000000000E0,-1.221694518E-3,1.231202012E-3
9.278319400E-1,-1.527118147E-4,-6.108472589E-4,-0.000000000E0,6.296469424E-4
9.302463670E-1,5.344913807E-4,6.108472589E-4,-1.221694518E-3,1.466749094E-3
9.326607940E-1,5.344913807E-4,-0.000000000E0,6.108472589E-4,8.116744481E-4
9.350752210E-1,5.344913807E-4,-1.221694518E-3,-6.108472589E-4,1.466749094E-3
9.374896490E-1,-7.635590737E-4,1.221694518E-3,1.832541777E-3,2.331044684E-3
9.399040760E-1,-1.527118147E-4,6.108472589E-4,1.221694518E-3,1.374406333E-3
9.423184510E-1,5.344913807E-4,-6.108472589E-4,1.221694518E-3,1.466749094E-3
9.447328780E-1,5.344913807E-4,1.221694518E-3,6.108472589E-4,1.466749094E-3
9.471473050E-1,-7.635590737E-4,6.108472589E-4,1.832541777E-3,2.077105244E-3
9.495617320E-1,-1.527118147E-4,1.832541777E-3,6.108472589E-4,1.937695703E-3
9.519761590E-1,1.145338640E-3,1.221694518E-3,1.832541777E-3,2.482447876E-3
9.543905860E-1,-1.527118147E-4,-6.108472589E-4,-0.000000000E0,6.296469424E-4
9.568049610E-1,-7.635590737E-4,1.221694518E-3,-6.108472589E-4,1.564830447E-3
9.592193880E-1,-1.374406274E-3,1.221694518E-3,-6.108472589E-4,1.937695661E-3
9.616338150E-1,-7.635590737E-4,6.108472589E-4,1.221694518E-3,1.564830447E-3
9.640482420E-1,-1.527118147E-4,6.108472589E-4,6.108472589E-4,8.772625866E-4
9.664626690E-1,-7.635590737E-4,6.108472589E-4,1.221694518E-3,1.564830447E-3
9.688770960E-1,-1.527118147E-4,-6.108472589E-4,-0.000000000E0,6.296469424E-4
9.712915240E-1,1.145338640E-3,1.221694518E-3,-0.000000000E0,1.674615805E-3
9.737058990E-1,1.145338640E-3,6.108472589E-4,-0.000000000E0,1.298050451E-3
9.761203260E-1,-7.635590737E-4,6.108472589E-4,-1.221694518E-3,1.564830447E-3
9.785347530E-1,1.145338640E-3,6.108472589E-4,6.108472589E-4,1.434597277E-3
9.809491800E-1,5.344913807E-4,1.221694518E-3,-6.108472589E-4,1.466749094E-3
9.833636070E-1,-1.374406274E-3,6.108472589E-4,6.108472589E-4,1.623348809E-3
9.857780340E-1,-1.527118147E-4,-0.000000000E0,6.108472589E-4,6.296469424E-4
9.881924090E-1,5.344913807E-4,-0.000000000E0,1.832541777E-3,1.908897692E-3
9.906068360E-1,5.344913807E-4,-0.000000000E0,6.108472589E-4,8.116744481E-4
9.930212630E-1,-7.635590737E-4,-6.108472589E-4,-0.000000000E0,9.778327223E-4
9.954356900E-1,-7.635590737E-4,-6.108472589E-4,6.108472589E-4,1.152948918E-3
9.978501170E-1,-1.374406274E-3,-0.000000000E0,-6.108472589E-4,1.504036895E-3
1.000264544E0,5.344913807E-4,-0.000000000E0,1.221694518E-3,1.333498606E-3
1.002678971E0,1.145338640E-3,-1.221694518E-3,-6.108472589E-4,1.782546624E-3
1.005093346E0,-1.527118147E-4,6.108472589E-4,1.221694518E-3,1.374406333E-3
1.007507774E0,-7.635590737E-4,6.108472589E-4,-6.108472589E-4,1.152948918E-3
1.009922201E0,-1.527118147E-4,-6.108472589E-4,1.832541777E-3,1.937695703E-3
1.012336628E0,-7.635590737E-4,-0.000000000E0,-6.108472589E-4,9.778327223E-4
1.014751055E0,5.344913807E-4,-0.000000000E0,-6.108472589E-4,8.116744481E-4
1.017165482E0,5.344913807E-4,-0.000000000E0,1.221694518E-3,1.333498606E-3
1.019579857E0,1.145338640E-3,6.108472589E-4,-0.000000000E0,1.298050451E-3
1.021994284E0,-7.635590737E-4,1.832541777E-3,-1.221694518E-3,2.331044684E-3
1.024408711E0,-7.635590737E-4,-0.000000000E0,6.108472589E-4,9.778327223E-4
1.026823138E0,-1.527118147E-4,-6.108472589E-4,-6.108472589E-4,8.772625866E-4
1.029237565E0,-1.527118147E-4,6.108472589E-4,1.221694518E-3,1.374406333E-3
1.031651992E0,5.344913807E-4,-1.221694518E-3,6.108472589E-4,1.466749094E-3
1.034066419E0,-1.527118147E-4,-6.108472589E-4,-0.000000000E0,6.296469424E-4
1.036480794E0,-7.635590737E-4,6.108472589E-4,-0.000000000E0,9.778327223E-4
1.038895221E0,-1.527118147E-4,6.108472589E-4,-1.221694518E-3,1.374406333E-3
1.041309649E0,-1.527118147E-4,-0.000000000E0,6.108472589E-4,6.296469424E-4
1.043724076E0,-1.374406274E-3,-0.000000000E0,-6.108472589E-4,1.504036895E-3
1.046138503E0,-1.527118147E-4,6.108472589E-4,-0.000000000E0,6.296469424E-4
1.048552930E0,-1.527118147E-4,6.108472589E-4,-6.108472589E-4,8.772625866E-4
1.050967305E0,-1.374406274E-3,1.221694518E-3,1.221694518E-3,2.207729059E-3
1.053381732E0,-1.527118147E-4,-6.108472589E-4,-0.000000000E0,6.296469424E-4
1.055796159E0,-1.527118147E-4,6.108472589E-4,6.108472589E-4,8.772625866E-4
1.058210586E0,-1.985253533E-3,-6.108472589E-4,-0.000000000E0,2.077105189E-3
1.060625013E0,5.344913807E-4,6.108472589E-4,6.108472589E-4,1.015849292E-3
1.063039440E0,5.344913807E-4,-0.000000000E0,6.108472589E-4,8.116744481E-4
1.065453815E0,5.344913807E-4,-6.108472589E-4,6.108472589E-4,1.015849292E-3
1.067868242E0,-1.527118147E-4,6.108472589E-4,-0.000000000E0,6.296469424E-4
1.070282669E0,-1.374406274E-3,-0.000000000E0,-1.221694518E-3,1.838893717E-3
1.072697096E0,-1.985253533E-3,6.108472589E-4,-1.221694518E-3,2.409751742E-3
1.075111524E0,1.145338640E-3,-6.108472589E-4,-1.221694518E-3,1.782546624E-3
1.077525951E0,5.344913807E-4,-6.108472589E-4,-0.000000000E0,8.116744481E-4
1.079940378E0,1.145338640E-3,1.221694518E-3,-0.000000000E0,1.674615805E-3
1.082354753E0,5.344913807E-4,-6.108472589E-4,3.054236295E-3,3.160249160E-3
1.084769180E0,1.756185899E-3,6.108472589E-4,-6.108472589E-4,1.957155502E-3
1.087183607E0,-1.527118147E-4,-1.221694518E-3,-0.000000000E0,1.231202012E-3
1.089598034E0,-1.527118147E-4,-0.000000000E0,6.108472589E-4,6.296469424E-4
1.092012461E0,-1.527118147E-4,-6.108472589E-4,1.221694518E-3,1.374406333E-3
1.094426888E0,5.344913807E-4,-6.108472589E-4,6.108472589E-4,1.015849292E-3
1.096841315E0,1.145338640E-3,6.108472589E-4,6.108472589E-4,1.434597277E-3
1.099255690E0,5.344913807E-4,-0.000000000E0,1.221694518E-3,1.333498606E-3
1.101670117E0,1.145338640E-3,-1.832541777E-3,-0.000000000E0,2.161020584E-3
1.104084544E0,-1.527118147E-4,6.108472589E-4,6.108472589E-4,8.772625866E-4
1.106498971E0,5.344913807E-4,-0.000000000E0,-0.000000000E0,5.344913807E-4
1.108913399E0,-7.635590737E-4,-6.108472589E-4,1.221694518E-3,1.564830447E-3
1.111327826E0,-1.527118147E-4,-1.832541777E-3,-0.000000000E0,1.838893760E-3
1.113742201E0,-1.527118147E-4,-0.000000000E0,-0.000000000E0,1.527118147E-4
1.116156628E0,1.756185899E-3,-6.108472589E-4,-0.000000000E0,1.859387879E-3
1.118571055E0,5.344913807E-4,6.108472589E-4,-6.108472589E-4,1.015849292E-3
1.120985482E0,5.344913807E-4,6.108472589E-4,-6.108472589E-4,1.015849292E-3
1.123399909E0,1.145338640E-3,-0.000000000E0,-0.000000000E0,1.145338640E-3
1.125814336E0,-1.527118147E-4,1.832541777E-3,-6.108472589E-4,1.937695703E-3
1.128228711E0,-1.527118147E-4,-0.000000000E0,6.108472589E-4,6.296469424E-4
1.130643138E0,-1.527118147E-4,6.108472589E-4,-0.000000000E0,6.296469424E-4
1.133057565E0,1.145338640E-3,-0.000000000E0,-6.108472589E-4,1.298050451E-3
1.135471992E0,-1.527118147E-4,-0.000000000E0,-6.108472589E-4,6.296469424E-4
1.137886419E0,1.145338640E-3,6.108472589E-4,6.108472589E-4,1.434597277E-3
1.140300846E0,-1.527118147E-4,-0.000000000E0,-6.108472589E-4,6.296469424E-4
1.142715221E0,2.367033157E-3,6.108472589E-4,-0.000000000E0,2.444581834E-3
1.145129649E0,1.145338640E-3,-0.000000000E0,-0.000000000E0,1.145338640E-3
1.147544076E0,-1.374406274E-3,-1.221694518E-3,6.108472589E-4,1.937695661E-3
1.149958503E0,-1.374406274E-3,-6.108472589E-4,-0.000000000E0,1.504036895E-3
1.152372930E0,-1.527118147E-4,6.108472589E-4,1.221694518E-3,1.374406333E-3
1.154787357E0,-1.527118147E-4,-0.000000000E0,-0.000000000E0,1.527118147E-4
1.157201784E0,1.145338640E-3,-0.000000000E0,6.108472589E-4,1.298050451E-3
1.159616159E0,-7.635590737E-4,-6.108472589E-4,1.221694518E-3,1.564830447E-3
1.162030586E0,-7.635590737E-4,6.108472589E-4,1.221694518E-3,1.564830447E-3
1.164445013E0,-7.635590737E-4,1.221694518E-3,-0.000000000E0,1.440680379E-3
1.166859440E0,5.344913807E-4,-0.000000000E0,1.221694518E-3,1.333498606E-3
1.169273867E0,1.145338640E-3,-6.108472589E-4,-0.000000000E0,1.298050451E-3
1.171688294E0,-1.527118147E-4,1.832541777E-3,-0.000000000E0,1.838893760E-3
1.174102721E0,-1.527118147E-4,-6.108472589E-4,6.108472589E-4,8.772625866E-4
1.176517096E0,-1.527118147E-4,-0.000000000E0,6.108472589E-4,6.296469424E-4
1.178931524E0,-1.527118147E-4,-1.221694518E-3,1.221694518E-3,1.734472798E-3
1.181345951E0,-1.527118147E-4,-6.108472589E-4,-0.000000000E0,6.296469424E-4
1.183760378E0,1.756185899E-3,-6.108472589E-4,-6.108472589E-4,1.957155502E-3
1.186174805E0,5.344913807E-4,-0.000000000E0,3.054236295E-3,3.100651606E-3
1.188589180E0,-1.527118147E-4,-6.108472589E-4,6.108472589E-4,8.772625866E-4
1.191003607E0,1.145338640E-3,1.832541777E-3,-0.000000000E0,2.161020584E-3
1.193418034E0,1.145338640E-3,6.108472589E-4,1.832541777E-3,2.245694622E-3
1.195832461E0,1.145338640E-3,-6.108472589E-4,6.108472589E-4,1.434597277E-3
1.198246888E0,-1.527118147E-4,-1.221694518E-3,6.108472589E-4,1.374406333E-3
1.200661315E0,-1.527118147E-4,-0.000000000E0,1.832541777E-3,1.838893760E-3
1.203075742E0,5.344913807E-4,-0.000000000E0,6.108472589E-4,8.116744481E-4
1.205490117E0,-1.374406274E-3,-6.108472589E-4,6.108472589E-4,1.623348809E-3
1.207904544E0,-1.527118147E-4,-1.221694518E-3,-0.000000000E0,1.231202012E-3
1.210318971E0,1.145338640E-3,-1.832541777E-3,-0.000000000E0,2.161020584E-3
1.212733399E0,-7.635590737E-4,-0.000000000E0,1.832541777E-3,1.985253592E-3
1.215147826E0,-1.985253533E-3,-0.000000000E0,-0.000000000E0,1.985253533E-3
1.217562253E0,-1.527118147E-4,1.221694518E-3,-6.108472589E-4,1.374406333E-3
1.219976628E0,1.145338640E-3,1.832541777E-3,-0.000000000E0,2.161020584E-3
1.222391055E0,-1.527118147E-4,-6.108472589E-4,1.221694518E-3,1.374406333E-3
1.224805482E0,-1.374406274E-3,6.108472589E-4,1.832541777E-3,2.370724856E-3
1.227219909E0,-7.635590737E-4,-0.000000000E0,6.108472589E-4,9.778327223E-4
1.229634336E0,-1.374406274E-3,-0.000000000E0,-6.108472589E-4,1.504036895E-3
1.232048763E0,5.344913807E-4,6.108472589E-4,1.221694518E-3,1.466749094E-3
1.234463190E0,5.344913807E-4,-0.000000000E0,-0.000000000E0,5.344913807E-4
1.236877565E0,-1.527118147E-4,-0.000000000E0,-1.221694518E-3,1.231202012E-3
1.239291992E0,5.344913807E-4,-1.221694518E-3,-1.221694518E-3,1.808523162E-3
1.241706419E0,5.344913807E-4,6.108472589E-4,1.221694518E-3,1.466749094E-3
1.244120846E0,5.344913807E-4,6.108472589E-4,6.108472589E-4,1.015849292E-3
1.246535274E0,-7.635590737E-4,6.108472589E-4,-0.000000000E0,9.778327223E-4
1.248949649E0,5.344913807E-4,-0.000000000E0,-0.000000000E0,5.344913807E-4
1.251364076E0,5.344913807E-4,-0.000000000E0,-0.000000000E0,5.344913807E-4
1.253778503E0,-1.374406274E-3,-6.108472589E-4,6.108472589E-4,1.623348809E-3
1.256192930E0,-1.527118147E-4,-0.000000000E0,6.108472589E-4,6.296469424E-4
1.258607357E0,5.344913807E-4,-6.108472589E-4,1.832541777E-3,2.004251674E-3
1.261021784E0,-1.527118147E-4,-6.108472589E-4,6.108472589E-4,8.772625866E-4
1.263436211E0,-7.635590737E-4,-0.000000000E0,-0.000000000E0,7.635590737E-4
1.265850638E0,-7.635590737E-4,-0.000000000E0,-0.000000000E0,7.635590737E-4
1.268265013E0,-7.635590737E-4,6.108472589E-4,6.108472589E-4,1.152948918E-3
1.270679440E0,-1.527118147E-4,-0.000000000E0,1.221694518E-3,1.231202012E-3
1.273093867E0,-7.635590737E-4,-0.000000000E0,-0.000000000E0,7.635590737E-4
1.275508294E0,-1.527118147E-4,1.221694518E-3,6.108472589E-4,1.374406333E-3
1.277922721E0,-1.527118147E-4,1.221694518E-3,-0.000000000E0,1.231202012E-3
1.280337149E0,-1.527118147E-4,-6.108472589E-4,-6.108472589E-4,8.772625866E-4
1.282751524E0,-7.635590737E-4,-6.108472589E-4,6.108472589E-4,1.152948918E-3
1.285165951E0,5.344913807E-4,-1.221694518E-3,-6.108472589E-4,1.466749094E-3
1.287580378E0,5.344913807E-4,-1.221694518E-3,-0.000000000E0,1.333498606E-3
1.289994805E0,1.145338640E-3,-6.108472589E-4,-0.000000000E0,1.298050451E-3
1.292409232E0,-1.527118147E-4,-0.000000000E0,-6.108472589E-4,6.296469424E-4
1.294823659E0,5.344913807E-4,-6.108472589E-4,-6.108472589E-4,1.015849292E-3
1.297238034E0,-1.527118147E-4,-0.000000000E0,-0.000000000E0,1.527118147E-4
1.299652461E0,5.344913807E-4,6.108472589E-4,1.832541777E-3,2.004251674E-3
1.302066888E0,-1.985253533E-3,-0.000000000E0,1.221694518E-3,2.331044634E-3
1.304481315E0,5.344913807E-4,-0.000000000E0,1.221694518E-3,1.333498606E-3
1.306895742E0,5.344913807E-4,1.221694518E-3,-0.000000000E0,1.333498606E-3
1.309310169E0,-1.527118147E-4,1.221694518E-3,1.221694518E-3,1.734472798E-3
1.311724544E0,5.344913807E-4,6.108472589E-4,6.108472589E-4,1.015849292E-3
1.314138971E0,-1.527118147E-4,-0.000000000E0,1.221694518E-3,1.231202012E-3
1.316553399E0,-7.635590737E-4,-1.221694518E-3,-0.000000000E0,1.440680379E-3
1.318967826E0,-7.635590737E-4,-6.108472589E-4,6.108472589E-4,1.152948918E-3
1.321382253E0,5.344913807E-4,-6.108472589E-4,1.221694518E-3,1.466749094E-3
1.323796680E0,-1.527118147E-4,-0.000000000E0,-0.000000000E0,1.527118147E-4
1.326211055E0,5.344913807E-4,6.108472589E-4,6.108472589E-4,1.015849292E-3
1.328625482E0,1.756185899E-3,6.108472589E-4,6.108472589E-4,1.957155502E-3
1.331039909E0,2.367033157E-3,-0.000000000E0,6.108472589E-4,2.444581834E-3
1.333454336E0,-1.527118147E-4,6.108472589E-4,6.108472589E-4,8.772625866E-4
1.335868763E0,-1.374406274E-3,-0.000000000E0,1.221694518E-3,1.838893717E-3
1.338283190E0,-7.635590737E-4,-1.221694518E-3,-1.221694518E-3,1.888940827E-3
1.340697617E0,-1.527118147E-4,6.108472589E-4,1.221694518E-3,1.374406333E-3
1.343111992E0,-7.635590737E-4,-0.000000000E0,1.221694518E-3,1.440680379E-3
1.345526419E0,-1.374406274E-3,-6.108472589E-4,2.443389036E-3,2.869194479E-3
1.347940846E0,-7.635590737E-4,6.108472589E-4,-0.000000000E0,9.778327223E-4
1.350355274E0,5.344913807E-4,-0.000000000E0,-0.000000000E0,5.344913807E-4
1.352769701E0,-1.527118147E-4,1.832541777E-3,-0.000000000E0,1.838893760E-3
1.355184128E0,-1.374406274E-3,1.221694518E-3,6.108472589E-4,1.937695661E-3
1.357598503E0,-7.635590737E-4,6.108472589E-4,-0.000000000E0,9.778327223E-4
1.360012930E0,1.756185899E-3,-6.108472589E-4,-6.108472589E-4,1.957155502E-3
1.362427357E0,1.145338640E-3,-0.000000000E0,-6.108472589E-4,1.298050451E-3
1.364841784E0,-7.635590737E-4,-6.108472589E-4,-1.221694518E-3,1.564830447E-3
1.367256211E0,-1.527118147E-4,-0.000000000E0,1.832541777E-3,1.838893760E-3
1.369670638E0,-1.527118147E-4,-0.000000000E0,6.108472589E-4,6.296469424E-4
1.372085013E0,-7.635590737E-4,-0.000000000E0,1.832541777E-3,1.985253592E-3
1.374499440E0,-1.527118147E-4,6.108472589E-4,6.108472589E-4,8.772625866E-4
1.376913867E0,-1.527118147E-4,-0.000000000E0,-0.000000000E0,1.527118147E-4
1.379328294E0,1.145338640E-3,-6.108472589E-4,-0.000000000E0,1.298050451E-3
1.381742721E0,1.756185899E-3,-0.000000000E0,6.108472589E-4,1.859387879E-3
1.384157149E0,-1.527118147E-4,6.108472589E-4,-0.000000000E0,6.296469424E-4
1.386571576E0,-1.374406274E-3,-6.108472589E-4,1.221694518E-3,1.937695661E-3
1.388985951E0,-1.527118147E-4,6.108472589E-4,1.832541777E-3,1.937695703E-3
1.391400378E0,-1.527118147E-4,-0.000000000E0,1.832541777E-3,1.838893760E-3
1.393814805E0,1.756185899E-3,6.108472589E-4,1.221694518E-3,2.224828258E-3
1.396229232E0,1.145338640E-3,6.108472589E-4,6.108472589E-4,1.434597277E-3
1.398643659E0,-7.635590737E-4,-6.108472589E-4,-6.108472589E-4,1.152948918E-3
1.401058034E0,-7.635590737E-4,-0.000000000E0,-6.108472589E-4,9.778327223E-4
1.403472461E0,-7.635590737E-4,-0.000000000E0,-0.000000000E0,7.635590737E-4
1.405886888E0,5.344913807E-4,-0.000000000E0,-0.000000000E0,5.344913807E-4
1.408301315E0,-1.527118147E-4,6.108472589E-4,-6.108472589E-4,8.772625866E-4
1.410715742E0,5.344913807E-4,-0.000000000E0,1.221694518E-3,1.333498606E-3
1.413130169E0,-1.374406274E-3,-0.000000000E0,-0.000000000E0,1.374406274E-3
1.415544596E0,-1.527118147E-4,-6.108472589E-4,6.108472589E-4,8.772625866E-4
1.417958971E0,-1.527118147E-4,-0.000000000E0,2.443389036E-3,2.448156629E-3
1.420373399E0,-1.527118147E-4,-6.108472589E-4,1.221694518E-3,1.374406333E-3
1.422787826E0,5.344913807E-4,-6.108472589E-4,-6.108472589E-4,1.015849292E-3
1.425202253E0,5.344913807E-4,6.108472589E-4,6.108472589E-4,1.015849292E-3
1.427616680E0,1.756185899E-3,1.221694518E-3,-6.108472589E-4,2.224828258E-3
1.430031107E0,-1.527118147E-4,-6.108472589E-4,-1.221694518E-3,1.374406333E-3
1.432445534E0,1.145338640E-3,-0.000000000E0,1.832541777E-3,2.161020584E-3
1.434859909E0,2.367033157E-3,6.108472589E-4,1.832541777E-3,3.055190617E-3
1.437274336E0,5.344913807E-4,1.221694518E-3,1.221694518E-3,1.808523162E-3
1.439688763E0,5.344913807E-4,-1.221694518E-3,-6.108472589E-4,1.466749094E-3
1.442103190E0,1.756185899E-3,-6.108472589E-4,-6.108472589E-4,1.957155502E-3
1.444517617E0,1.145338640E-3,-0.000000000E0,6.108472589E-4,1.298050451E-3
1.446931992E0,-7.635590737E-4,-0.000000000E0,-0.000000000E0,7.635590737E-4
1.449346419E0,-1.527118147E-4,-0.000000000E0,6.108472589E-4,6.296469424E-4
1.451760846E0,-7.635590737E-4,1.221694518E-3,-0.000000000E0,1.440680379E-3
1.454175274E0,1.145338640E-3,6.108472589E-4,-0.000000000E0,1.298050451E-3
1.456589701E0,-1.527118147E-4,6.108472589E-4,6.108472589E-4,8.772625866E-4
1.459004128E0,-1.374406274E-3,-6.108472589E-4,2.443389036E-3,2.869194479E-3
1.461418503E0,-1.527118147E-4,6.108472589E-4,-0.000000000E0,6.296469424E-4
1.463832930E0,-1.527118147E-4,-0.000000000E0,-0.000000000E0,1.527118147E-4
1.466247357E0,5.344913807E-4,-0.000000000E0,6.108472589E-4,8.116744481E-4
1.468661784E0,-1.527118147E-4,6.108472589E-4,1.221694518E-3,1.374406333E-3
1.471076211E0,-1.527118147E-4,1.221694518E-3,6.108472589E-4,1.374406333E-3
1.473490638E0,5.344913807E-4,-0.000000000E0,6.108472589E-4,8.116744481E-4
1.475905065E0,1.145338640E-3,-1.221694518E-3,1.221694518E-3,2.072890636E-3
1.478319440E0,5.344913807E-4,-1.221694518E-3,6.108472589E-4,1.466749094E-3
1.480733867E0,-1.527118147E-4,-6.108472589E-4,6.108472589E-4,8.772625866E-4
1.483148294E0,5.344913807E-4,-0.000000000E0,-0.000000000E0,5.344913807E-4
1.485562721E0,-1.527118147E-4,-0.000000000E0,6.108472589E-4,6.296469424E-4
1.487977149E0,-1.527118147E-4,-6.108472589E-4,-6.108472589E-4,8.772625866E-4
1.490391576E0,-1.527118147E-4,6.108472589E-4,6.108472589E-4,8.772625866E-4
1.492805951E0,5.344913807E-4,-0.000000000E0,-0.000000000E0,5.344913807E-4
1.495220378E0,2.367033157E-3,6.108472589E-4,1.221694518E-3,2.732858913E-3
1.497634805E0,5.344913807E-4,-6.108472589E-4,-0.000000000E0,8.116744481E-4
1.500049232E0,-1.374406274E-3,-1.221694518E-3,1.832541777E-3,2.596100820E-3
1.502463659E0,5.344913807E-4,-1.221694518E-3,-1.221694518E-3,1.808523162E-3
1.504878086E0,1.756185899E-3,6.108472589E-4,2.443389036E-3,3.070419070E-3
1.507292461E0,-7.635590737E-4,6.108472589E-4,-0.000000000E0,9.778327223E-4
1.509706888E0,5.344913807E-4,-0.000000000E0,1.832541777E-3,1.908897692E-3
1.512121315E0,1.145338640E-3,-0.000000000E0,-0.000000000E0,1.145338640E-3
1.514535742E0,1.145338640E-3,-0.000000000E0,1.221694518E-3,1.674615805E-3
1.516950169E0,1.145338640E-3,6.108472589E-4,6.108472589E-4,1.434597277E-3
1.519364596E0,-7.635590737E-4,6.108472589E-4,6.108472589E-4,1.152948918E-3
1.521778971E0,-1.527118147E-4,6.108472589E-4,1.221694518E-3,1.374406333E-3
1.524193399E0,1.756185899E-3,-0.000000000E0,-6.108472589E-4,1.859387879E-3
1.526607826E0,1.756185899E-3,6.108472589E-4,-0.000000000E0,1.859387879E-3
1.529022253E0,1.145338640E-3,-0.000000000E0,-0.000000000E0,1.145338640E-3
1.531436680E0,1.756185899E-3,1.221694518E-3,1.832541777E-3,2.816901803E-3
1.533851107E0,1.756185899E-3,-6.108472589E-4,6.108472589E-4,1.957155502E-3
1.536265482E0,1.145338640E-3,-0.000000000E0,6.108472589E-4,1.298050451E-3
1.538679909E0,1.145338640E-3,6.108472589E-4,-6.108472589E-4,1.434597277E-3
1.541094336E0,-7.635590737E-4,-6.108472589E-4,-6.108472589E-4,1.152948918E-3
1.543508763E0,-7.635590737E-4,-1.221694518E-3,-1.221694518E-3,1.888940827E-3
1.545923190E0,-1.527118147E-4,-0.000000000E0,1.832541777E-3,1.838893760E-3
1.548337617E0,1.145338640E-3,-6.108472589E-4,-1.221694518E-3,1.782546624E-3
1.550751992E0,-1.527118147E-4,-6.108472589E-4,1.221694518E-3,1.374406333E-3
1.553166419E0,5.344913807E-4,-0.000000000E0,-6.108472589E-4,8.116744481E-4
1.555580846E0,5.344913807E-4,-0.000000000E0,-0.000000000E0,5.344913807E-4
1.557995274E0,5.344913807E-4,-1.221694518E-3,1.221694518E-3,1.808523162E-3
1.560409701E0,-1.527118147E-4,-6.108472589E-4,6.108472589E-4,8.772625866E-4
1.562824128E0,1.756185899E-3,1.221694518E-3,1.832541777E-3,2.816901803E-3
1.565238503E0,-1.527118147E-4,-0.000000000E0,1.832541777E-3,1.838893760E-3
1.567652930E0,-1.527118147E-4,6.108472589E-4,1.221694518E-3,1.374406333E-3
1.570067357E0,-1.527118147E-4,-6.108472589E-4,-6.108472589E-4,8.772625866E-4
1.572481784E0,-1.527118147E-4,6.108472589E-4,1.832541777E-3,1.937695703E-3
1.574896211E0,5.344913807E-4,6.108472589E-4,-0.000000000E0,8.116744481E-4
1.577310638E0,-1.527118147E-4,-6.108472589E-4,1.221694518E-3,1.374406333E-3
1.579725013E0,1.145338640E-3,-0.000000000E0,6.108472589E-4,1.298050451E-3
1.582139440E0,-1.527118147E-4,-0.000000000E0,1.832541777E-3,1.838893760E-3
1.584553867E0,-1.527118147E-4,-0.000000000E0,6.108472589E-4,6.296469424E-4
1.586968294E0,-1.527118147E-4,-6.108472589E-4,-0.000000000E0,6.296469424E-4
1.589382721E0,-1.527118147E-4,-0.000000000E0,-0.000000000E0,1.527118147E-4
1.591797149E0,-1.527118147E-4,-0.000000000E0,1.221694518E-3,1.231202012E-3
1.594211524E0,5.344913807E-4,6.108472589E-4,-1.221694518E-3,1.466749094E-3
1.596625951E0,-7.635590737E-4,6.108472589E-4,1.832541777E-3,2.077105244E-3
1.599040378E0,-7.635590737E-4,-0.000000000E0,6.108472589E-4,9.778327223E-4
1.601454805E0,-1.527118147E-4,-0.000000000E0,1.221694518E-3,1.231202012E-3
1.603869232E0,5.344913807E-4,-1.221694518E-3,-6.108472589E-4,1.466749094E-3
1.606283659E0,-7.635590737E-4,-0.000000000E0,6.108472589E-4,9.778327223E-4
1.608698034E0,-1.527118147E-4,-6.108472589E-4,-0.000000000E0,6.296469424E-4
1.611112461E0,5.344913807E-4,-0.000000000E0,-0.000000000E0,5.344913807E-4
1.613526888E0,-1.527118147E-4,6.108472589E-4,1.221694518E-3,1.374406333E-3
1.615941315E0,-7.635590737E-4,6.108472589E-4,1.832541777E-3,2.077105244E-3
1.618355742E0,-1.374406274E-3,1.221694518E-3,1.221694518E-3,2.207729059E-3
1.620770169E0,5.344913807E-4,-0.000000000E0,6.108472589E-4,8.116744481E-4
1.623184596E0,1.756185899E-3,-0.000000000E0,1.221694518E-3,2.139328494E-3
1.625598971E0,-1.527118147E-4,-6.108472589E-4,-0.000000000E0,6.296469424E-4
1.628013399E0,-1.527118147E-4,6.108472589E-4,1.832541777E-3,1.937695703E-3
1.630427826E0,-1.985253533E-3,-1.221694518E-3,-0.000000000E0,2.331044634E-3
1.632842253E0,-1.527118147E-4,-6.108472589E-4,6.108472589E-4,8.772625866E-4
1.635256680E0,-7.635590737E-4,-6.108472589E-4,-0.000000000E0,9.778327223E-4
1.637671055E0,-1.527118147E-4,-0.000000000E0,-0.000000000E0,1.527118147E-4
1.640085482E0,-1.527118147E-4,-6.108472589E-4,-0.000000000E0,6.296469424E-4
1.642499909E0,1.756185899E-3,6.108472589E-4,6.108472589E-4,1.957155502E-3
1.644914336E0,-7.635590737E-4,-0.000000000E0,1.221694518E-3,1.440680379E-3
1.647328763E0,5.344913807E-4,-0.000000000E0,1.221694518E-3,1.333498606E-3
1.649743190E0,-1.527118147E-4,-0.000000000E0,-0.000000000E0,1.527118147E-4
1.652157617E0,1.145338640E-3,-0.000000000E0,-6.108472589E-4,1.298050451E-3
1.654571992E0,-1.527118147E-4,-1.832541777E-3,6.108472589E-4,1.937695703E-3
1.656986419E0,1.145338640E-3,-6.108472589E-4,-6.108472589E-4,1.434597277E-3
1.659400846E0,1.756185899E-3,-6.108472589E-4,-6.108472589E-4,1.957155502E-3
1.661815274E0,-7.635590737E-4,-6.108472589E-4,1.221694518E-3,1.564830447E-3
1.664229701E0,-7.635590737E-4,-6.108472589E-4,1.221694518E-3,1.564830447E-3
1.666644076E0,1.145338640E-3,-6.108472589E-4,-0.000000000E0,1.298050451E-3
1.669058503E0,1.145338640E-3,-6.108472589E-4,-0.000000000E0,1.298050451E-3
1.671472930E0,1.756185899E-3,-6.108472589E-4,-0.000000000E0,1.859387879E-3
1.673887357E0,5.344913807E-4,-1.221694518E-3,-6.108472589E-4,1.466749094E-3
1.676301784E0,5.344913807E-4,-6.108472589E-4,-0.000000000E0,8.116744481E-4
1.678716211E0,-7.635590737E-4,-6.108472589E-4,6.108472589E-4,1.152948918E-3
1.681130638E0,-1.527118147E-4,1.221694518E-3,-0.000000000E0,1.231202012E-3
1.683545013E0,1.145338640E-3,2.443389036E-3,-0.000000000E0,2.698508955E-3
1.685959440E0,5.344913807E-4,1.221694518E-3,1.221694518E-3,1.808523162E-3
1.688373867E0,2.367033157E-3,-0.000000000E0,1.221694518E-3,2.663716100E-3
1.690788294E0,1.145338640E-3,-6.108472589E-4,-0.000000000E0,1.298050451E-3
1.693202721E0,-1.527118147E-4,-0.000000000E0,1.832541777E-3,1.838893760E-3
1.695617096E0,-7.635590737E-4,6.108472589E-4,1.221694518E-3,1.564830447E-3
1.698031524E0,-7.635590737E-4,-0.000000000E0,1.221694518E-3,1.440680379E-3
1.700445951E0,5.344913807E-4,6.108472589E-4,6.108472589E-4,1.015849292E-3
1.702860378E0,-1.374406274E-3,1.221694518E-3,-0.000000000E0,1.838893717E-3
1.705274805E0,1.145338640E-3,6.108472589E-4,1.832541777E-3,2.245694622E-3
1.707689232E0,5.344913807E-4,-6.108472589E-4,-0.000000000E0,8.116744481E-4
1.710103607E0,-1.527118147E-4,1.221694518E-3,6.108472589E-4,1.374406333E-3
1.712518034E0,5.344913807E-4,-0.000000000E0,6.108472589E-4,8.116744481E-4
1.714932461E0,-1.374406274E-3,6.108472589E-4,6.108472589E-4,1.623348809E-3
1.717346888E0,5.344913807E-4,-0.000000000E0,-0.000000000E0,5.344913807E-4
1.719761315E0,1.145338640E-3,6.108472589E-4,2.443389036E-3,2.766782419E-3
1.722175742E0,5.344913807E-4,6.108472589E-4,2.443389036E-3,2.574677725E-3
1.724590169E0,-1.527118147E-4,-0.000000000E0,-0.000000000E0,1.527118147E-4
1.727004544E0,5.344913807E-4,6.108472589E-4,-0.000000000E0,8.116744481E-4
1.729418971E0,1.145338640E-3,6.108472589E-4,-6.108472589E-4,1.434597277E-3
1.731833399E0,5.344913807E-4,-6.108472589E-4,6.108472589E-4,1.015849292E-3
1.734247826E0,5.344913807E-4,-6.108472589E-4,-1.221694518E-3,1.466749094E-3
1.736662253E0,-1.527118147E-4,-1.221694518E-3,6.108472589E-4,1.374406333E-3
1.739076680E0,1.145338640E-3,-6.108472589E-4,-0.000000000E0,1.298050451E-3
1.741491055E0,1.145338640E-3,-6.108472589E-4,6.108472589E-4,1.434597277E-3
1.743905482E0,5.344913807E-4,6.108472589E-4,-0.000000000E0,8.116744481E-4
1.746319909E0,5.344913807E-4,6.108472589E-4,1.221694518E-3,1.466749094E-3
1.748734336E0,1.145338640E-3,1.221694518E-3,6.108472589E-4,1.782546624E-3
1.751148763E0,-7.635590737E-4,-6.108472589E-4,6.108472589E-4,1.152948918E-3
1.753563138E0,-7.635590737E-4,-1.832541777E-3,-6.108472589E-4,2.077105244E-3
1.755977565E0,5.344913807E-4,-6.108472589E-4,-6.108472589E-4,1.015849292E-3
1.758391992E0,-1.527118147E-4,-0.000000000E0,-0.000000000E0,1.527118147E-4
1.760806419E0,5.344913807E-4,-0.000000000E0,6.108472589E-4,8.116744481E-4
1.763220846E0,-1.527118147E-4,-6.108472589E-4,1.221694518E-3,1.374406333E-3
1.765635274E0,-1.527118147E-4,-0.000000000E0,-0.000000000E0,1.527118147E-4
1.768049701E0,1.145338640E-3,-0.000000000E0,-0.000000000E0,1.145338640E-3
1.770464076E0,-1.527118147E-4,-0.000000000E0,-0.000000000E0,1.527118147E-4
1.772878503E0,-1.527118147E-4,-0.000000000E0,6.108472589E-4,6.296469424E-4
1.775292930E0,-1.527118147E-4,-0.000000000E0,-0.000000000E0,1.527118147E-4
1.777707357E0,5.344913807E-4,-0.000000000E0,6.108472589E-4,8.116744481E-4
1.780121784E0,1.145338640E-3,6.108472589E-4,-6.108472589E-4,1.434597277E-3
1.782536211E0,5.344913807E-4,6.108472589E-4,6.108472589E-4,1.015849292E-3
1.784950586E0,5.344913807E-4,6.108472589E-4,2.443389036E-3,2.574677725E-3
1.787365013E0,2.367033157E-3,1.221694518E-3,-0.000000000E0,2.663716100E-3
1.789779440E0,5.344913807E-4,-6.108472589E-4,6.108472589E-4,1.015849292E-3
1.792193867E0,5.344913807E-4,-0.000000000E0,-0.000000000E0,5.344913807E-4
1.794608294E0,5.344913807E-4,-0.000000000E0,-6.108472589E-4,8.116744481E-4
1.797022669E0,-1.374406274E-3,-1.221694518E-3,-0.000000000E0,1.838893717E-3
1.799437096E0,1.145338640E-3,-0.000000000E0,1.221694518E-3,1.674615805E-3
1.801851524E0,1.145338640E-3,2.443389036E-3,-6.108472589E-4,2.766782419E-3
1.804265951E0,5.344913807E-4,6.108472589E-4,-0.000000000E0,8.116744481E-4
1.806680378E0,-1.527118147E-4,-0.000000000E0,6.108472589E-4,6.296469424E-4
1.809094805E0,-1.527118147E-4,-0.000000000E0,1.832541777E-3,1.838893760E-3
1.811509232E0,5.344913807E-4,6.108472589E-4,1.221694518E-3,1.466749094E-3
1.813923607E0,1.145338640E-3,-0.000000000E0,1.221694518E-3,1.674615805E-3
1.816338034E0,5.344913807E-4,6.108472589E-4,-1.221694518E-3,1.466749094E-3
1.818752461E0,-1.527118147E-4,-0.000000000E0,6.108472589E-4,6.296469424E-4
1.821166888E0,-7.635590737E-4,1.221694518E-3,-0.000000000E0,1.440680379E-3
1.823581315E0,1.145338640E-3,6.108472589E-4,-0.000000000E0,1.298050451E-3
1.825995690E0,5.344913807E-4,1.221694518E-3,-6.108472589E-4,1.466749094E-3
1.828410117E0,-1.527118147E-4,6.108472589E-4,-6.108472589E-4,8.772625866E-4
1.830824544E0,1.145338640E-3,-0.000000000E0,6.108472589E-4,1.298050451E-3
1.833238971E0,1.145338640E-3,1.832541777E-3,1.221694518E-3,2.482447876E-3
1.835653399E0,-1.985253533E-3,1.221694518E-3,1.832541777E-3,2.965127055E-3
1.838067826E0,-7.635590737E-4,-0.000000000E0,6.108472589E-4,9.778327223E-4
1.840482201E0,5.344913807E-4,-0.000000000E0,1.832541777E-3,1.908897692E-3
1.842896628E0,-7.635590737E-4,1.221694518E-3,1.221694518E-3,1.888940827E-3
1.845311055E0,-1.527118147E-4,-0.000000000E0,-0.000000000E0,1.527118147E-4
1.847725482E0,-1.374406274E-3,-1.221694518E-3,-1.221694518E-3,2.207729059E-3
1.850139909E0,-1.985253533E-3,-6.108472589E-4,6.108472589E-4,2.165063588E-3
1.852554336E0,-7.635590737E-4,-6.108472589E-4,1.221694518E-3,1.564830447E-3
1.854968711E0,-1.527118147E-4,-0.000000000E0,6.108472589E-4,6.296469424E-4
1.857383138E0,-7.635590737E-4,-0.000000000E0,-0.000000000E0,7.635590737E-4
1.859797565E0,-1.985253533E-3,-6.108472589E-4,6.108472589E-4,2.165063588E-3
1.862211992E0,-3.817795368E-4,6.108472589E-4,6.872031372E-4,9.955592098E-4
1.864626419E0,2.290677221E-4,-6.108472589E-4,7.635590737E-5,6.568383512E-4
1.867040846E0,8.399150101E-4,-0.000000000E0,-5.344913807E-4,9.955592701E-4
1.869455221E0,-1.068982761E-3,-0.000000000E0,7.635590737E-5,1.071706288E-3
1.871869649E0,-1.068982761E-3,-1.221694518E-3,6.872031372E-4,1.762813033E-3
1.874284076E0,-3.817795368E-4,6.108472589E-4,-5.344913807E-4,8.969788317E-4
1.876698503E0,-1.068982761E-3,-0.000000000E0,-5.344913807E-4,1.195159061E-3
1.879112930E0,2.290677221E-4,-0.000000000E0,7.635590737E-5,2.414585801E-4
1.881527357E0,2.290677221E-4,6.108472589E-4,6.872031372E-4,9.475518703E-4
1.883941732E0,2.290677221E-4,1.221694518E-3,-1.145338640E-3,1.690210080E-3
1.886356159E0,2.290677221E-4,-6.108472589E-4,-1.145338640E-3,1.318107353E-3
1.888770586E0,-3.817795368E-4,-0.000000000E0,-5.344913807E-4,6.568383749E-4
1.891185013E0,2.290677221E-4,-0.000000000E0,-5.344913807E-4,5.815092926E-4
1.893599440E0,8.399150101E-4,-6.108472589E-4,7.635590737E-5,1.041355762E-3
1.896013867E0,1.450762269E-3,-6.108472589E-4,-1.145338640E-3,1.946701347E-3
1.898428242E0,-3.817795368E-4,-6.108472589E-4,-5.344913807E-4,8.969788317E-4
1.900842669E0,8.399150101E-4,-0.000000000E0,-1.145338640E-3,1.420302018E-3
1.903257096E0,2.061609412E-3,-0.000000000E0,-5.344913807E-4,2.129768626E-3
1.905671524E0,2.290677221E-4,-0.000000000E0,-1.145338640E-3,1.168020813E-3
1.908085951E0,-9.926267667E-4,-0.000000000E0,6.872031372E-4,1.207292860E-3
1.910500378E0,-3.817795368E-4,6.108472589E-4,-1.145338640E-3,1.353030150E-3
1.912914753E0,2.290677221E-4,1.832541777E-3,-1.145338640E-3,2.173127236E-3
1.915329180E0,1.450762269E-3,-0.000000000E0,6.872031372E-4,1.605291037E-3
1.917743607E0,-9.926267667E-4,-0.000000000E0,-1.145338640E-3,1.515621489E-3
1.920158034E0,2.290677221E-4,-7.635590737E-5,-5.344913807E-4,5.865008797E-4
1.922572461E0,-3.817795368E-4,-6.872031372E-4,-1.145338640E-3,1.389173987E-3
1.924986888E0,2.290677221E-4,-7.635590737E-5,6.872031372E-4,7.283889055E-4
1.927401263E0,2.290677221E-4,1.145338640E-3,-1.145338640E-3,1.635870783E-3
1.929815690E0,-3.817795368E-4,-7.635590737E-5,6.872031372E-4,7.898316220E-4
1.932230117E0,2.290677221E-4,-1.908897655E-3,-1.145338640E-3,2.237892508E-3
1.934644544E0,-3.817795368E-4,-1.298050396E-3,-5.344913807E-4,1.454775406E-3
1.937058971E0,-9.926267667E-4,-7.635590737E-5,-5.344913807E-4,1.129964229E-3
1.939473346E0,-3.817795368E-4,-6.872031372E-4,-5.344913807E-4,9.506233758E-4
1.941887774E0,-9.926267667E-4,5.344913807E-4,1.298050396E-3,1.719280014E-3
1.944302201E0,2.290677221E-4,-7.635590737E-5,-1.145338640E-3,1.170513924E-3
1.946716628E0,8.399150101E-4,5.344913807E-4,7.635590737E-5,9.984830919E-4
1.949131055E0,-1.603474026E-3,5.344913807E-4,6.872031372E-4,1.824570672E-3
1.951545482E0,-1.603474026E-3,1.756185899E-3,6.872031372E-4,2.475392093E-3
1.953959909E0,2.290677221E-4,-7.635590737E-5,-1.145338640E-3,1.170513924E-3
1.956374284E0,-3.817795368E-4,-7.635590737E-5,7.635590737E-5,3.967569331E-4
1.958788711E0,-3.817795368E-4,-7.635590737E-5,7.635590737E-5,3.967569331E-4
1.961203138E0,2.290677221E-4,-7.635590737E-5,7.635590737E-5,2.532438953E-4
1.963617565E0,-9.926267667E-4,-7.635590737E-5,-5.344913807E-4,1.129964229E-3
1.966031992E0,-9.926267667E-4,-6.872031372E-4,1.527118147E-4,1.216912876E-3
1.968446419E0,-1.603474026E-3,-7.635590737E-5,-4.581354442E-4,1.669385294E-3
1.970860794E0,-3.817795368E-4,-6.872031372E-4,1.374406274E-3,1.583349732E-3
1.973275221E0,-3.817795368E-4,5.344913807E-4,7.635590737E-4,1.007203609E-3
1.975689649E0,1.527118147E-3,-7.635590737E-5,1.527118147E-4,1.536632994E-3
1.978104076E0,-3.817795368E-4,1.145338640E-3,-4.581354442E-4,1.291295589E-3
1.980518503E0,2.290677221E-4,-7.635590737E-5,-4.581354442E-4,5.178709599E-4
1.982932878E0,2.290677221E-4,-7.635590737E-5,1.527118147E-4,2.856976448E-4
1.985347305E0,8.399150101E-4,5.344913807E-4,1.527118147E-4,1.007203633E-3
1.987761732E0,-3.817795368E-4,5.344913807E-4,1.374406274E-3,1.523295525E-3
1.990176159E0,-3.817795368E-4,-7.635590737E-5,7.635590737E-4,8.570929345E-4
1.992590586E0,2.290677221E-4,-7.635590737E-5,7.635590737E-4,8.008275126E-4
1.995005013E0,9.162708884E-4,5.344913807E-4,-1.068982761E-3,1.505973944E-3
1.997419388E0,2.290677221E-4,-7.635590737E-5,1.527118147E-4,2.856976448E-4
1.999833815E0,-3.817795368E-4,-7.635590737E-5,-1.679830020E-3,1.724359225E-3
2.002248242E0,-2.214321401E-3,-6.872031372E-4,1.374406274E-3,2.695266225E-3
2.004662669E0,-3.817795368E-4,-6.872031372E-4,-1.068982761E-3,1.326924229E-3
2.007077096E0,9.162708884E-4,-7.635590737E-5,2.596100792E-3,2.754109999E-3
2.009491524E0,2.290677221E-4,-6.872031372E-4,-1.068982761E-3,1.291295596E-3
2.011905899E0,-3.817795368E-4,-6.872031372E-4,-4.581354442E-4,9.098856257E-4
2.014320326E0,3.054236295E-4,-6.872031372E-4,-1.068982761E-3,1.307002636E-3
2.016734753E0,3.054236295E-4,-6.872031372E-4,1.374406274E-3,1.566692169E-3
2.019149180E0,9.162708884E-4,-7.635590737E-5,-4.581354442E-4,1.027263671E-3
2.021563607E0,9.162708884E-4,-7.635590737E-5,1.374406274E-3,1.653594622E-3
2.023977982E0,1.527118147E-3,-7.635590737E-5,1.527118147E-4,1.536632994E-3
2.026392409E0,2.137965523E-3,1.145338640E-3,1.527118147E-4,2.430230045E-3
2.028806836E0,1.527118147E-3,-7.635590737E-5,-1.068982761E-3,1.865648468E-3
2.031221263E0,3.054236295E-4,-6.872031372E-4,1.527118147E-4,7.673673459E-4
2.033635690E0,-3.054236295E-4,5.344913807E-4,-4.581354442E-4,7.673673923E-4
2.036050117E0,-3.054236295E-4,-7.635590737E-5,-1.068982761E-3,1.114377836E-3
2.038464492E0,3.054236295E-4,-7.635590737E-5,1.527118147E-4,3.499067253E-4
2.040878919E0,1.527118147E-3,-7.635590737E-5,-1.068982761E-3,1.865648468E-3
2.043293346E0,9.162708884E-4,-7.635590737E-5,-4.581354442E-4,1.027263671E-3
2.045707774E0,2.137965523E-3,-6.872031372E-4,1.527118147E-4,2.250881078E-3
2.048122201E0,-3.054236295E-4,-7.635590737E-5,7.635590737E-4,8.259154176E-4
2.050536628E0,-9.926267667E-4,-1.298050396E-3,1.527118147E-4,1.641207978E-3
2.052951055E0,3.054236295E-4,-1.298050396E-3,7.635590737E-4,1.536632970E-3
2.055365430E0,3.054236295E-4,-7.635590737E-5,-1.068982761E-3,1.114377836E-3
2.057779857E0,9.162708884E-4,-6.872031372E-4,7.635590737E-4,1.376525681E-3
2.060194284E0,9.162708884E-4,-7.635590737E-5,1.527118147E-4,9.320426299E-4
2.062608711E0,3.054236295E-4,1.145338640E-3,1.527118147E-4,1.195159023E-3
2.065023138E0,-3.054236295E-4,-7.635590737E-5,-1.068982761E-3,1.114377836E-3
2.067437513E0,3.054236295E-4,-7.635590737E-5,1.527118147E-4,3.499067253E-4
2.069851940E0,-3.054236295E-4,-6.872031372E-4,-2.290677279E-3,2.410961249E-3
2.072266367E0,-3.054236295E-4,-1.298050396E-3,7.635590737E-4,1.536632970E-3
2.074680794E0,-3.054236295E-4,-6.872031372E-4,-1.068982761E-3,1.307002636E-3
2.077095221E0,-9.926267667E-4,5.344913807E-4,1.527118147E-4,1.137677385E-3
2.079509649E0,1.527118147E-3,-7.635590737E-5,-4.581354442E-4,1.596185499E-3
2.081924024E0,9.162708884E-4,-7.635590737E-5,-4.581354442E-4,1.027263671E-3
2.084338451E0,-3.054236295E-4,-7.635590737E-5,7.635590737E-4,8.259154176E-4
2.086752878E0,3.054236295E-4,5.344913807E-4,7.635590737E-4,9.808094048E-4
2.089167305E0,1.527118147E-3,-7.635590737E-5,1.374406274E-3,2.055945687E-3
2.091581732E0,2.137965523E-3,-7.635590737E-5,-1.068982761E-3,2.391537360E-3
2.093996159E0,-9.926267667E-4,1.145338640E-3,1.527118147E-4,1.523295571E-3
2.096410534E0,3.054236295E-4,1.145338640E-3,-4.581354442E-4,1.270815596E-3
2.098824961E0,9.162708884E-4,5.344913807E-4,1.527118147E-4,1.071706245E-3
2.101239388E0,3.054236295E-4,5.344913807E-4,-1.068982761E-3,1.233567499E-3
2.103653815E0,-9.926267667E-4,-7.635590737E-5,1.527118147E-4,1.007203565E-3
2.106068242E0,-3.817795368E-4,-7.635590737E-5,7.635590737E-4,8.570929345E-4
2.108482669E0,3.054236295E-4,5.344913807E-4,1.450762269E-3,1.575968207E-3
2.110897044E0,3.054236295E-4,-7.635590737E-5,8.399150101E-4,8.969788416E-4
2.113311471E0,-9.926267667E-4,-6.872031372E-4,1.450762269E-3,1.887396941E-3
2.115725899E0,2.290677221E-4,-6.872031372E-4,-9.926267667E-4,1.228831995E-3
2.118140326E0,9.162708884E-4,1.145338640E-3,-3.817795368E-4,1.515621508E-3
2.120554753E0,2.290677221E-4,1.145338640E-3,-3.817795368E-4,1.228832062E-3
2.122969128E0,-3.817795368E-4,-6.872031372E-4,2.290677221E-4,8.188258593E-4
2.125383555E0,-9.926267667E-4,5.344913807E-4,8.399150101E-4,1.405861358E-3
2.127797982E0,-3.817795368E-4,-7.635590737E-5,-9.926267667E-4,1.066252192E-3
2.130212409E0,-3.817795368E-4,5.344913807E-4,2.061609412E-3,2.163716714E-3
2.132626836E0,-3.817795368E-4,1.756185899E-3,2.290677221E-4,1.811744062E-3
2.135041263E0,8.399150101E-4,5.344913807E-4,8.399150101E-4,1.302534255E-3
2.137455638E0,1.527118147E-3,5.344913807E-4,-3.817795368E-4,1.662385782E-3
2.139870065E0,-3.817795368E-4,-6.872031372E-4,8.399150101E-4,1.150417746E-3
2.142284492E0,2.290677221E-4,-1.908897655E-3,-9.926267667E-4,2.163716751E-3
2.144698919E0,-3.817795368E-4,5.344913807E-4,2.290677221E-4,6.956354448E-4
2.147113346E0,2.290677221E-4,-7.635590737E-5,-3.817795368E-4,4.517276399E-4
2.149527774E0,1.527118147E-3,-7.635590737E-5,2.290677221E-4,1.546089287E-3
2.151942149E0,8.399150101E-4,-6.872031372E-4,-1.603474026E-3,1.936190674E-3
2.154356576E0,8.399150101E-4,-6.872031372E-4,2.290677221E-4,1.109133625E-3
2.156771003E0,8.399150101E-4,-6.872031372E-4,2.290677221E-4,1.109133625E-3
2.159185430E0,-3.817795368E-4,-6.872031372E-4,-9.926267667E-4,1.266219438E-3
2.161599857E0,-9.926267667E-4,-7.635590737E-5,2.290677221E-4,1.021572388E-3
2.164014284E0,-9.926267667E-4,-6.872031372E-4,-3.817795368E-4,1.266219438E-3
2.166428659E0,8.399150101E-4,-7.635590737E-5,2.290677221E-4,8.739333328E-4
2.168843086E0,-9.926267667E-4,5.344913807E-4,-3.817795368E-4,1.190270788E-3
2.171257513E0,1.450762269E-3,-7.635590737E-5,2.290677221E-4,1.470718670E-3
2.173671940E0,2.061609412E-3,-7.635590737E-5,2.290677221E-4,2.075701234E-3
2.176086367E0,2.290677221E-4,5.344913807E-4,8.399150101E-4,1.021572455E-3
2.178500794E0,-9.926267667E-4,1.145338640E-3,-3.817795368E-4,1.562966446E-3
2.180915169E0,2.290677221E-4,-7.635590737E-5,-3.817795368E-4,4.517276399E-4
2.183329596E0,8.399150101E-4,5.344913807E-4,2.290677221E-4,1.021572455E-3
2.185744024E0,2.290677221E-4,-7.635590737E-5,2.290677221E-4,3.328276840E-4
2.188158451E0,8.399150101E-4,-6.872031372E-4,-9.926267667E-4,1.470718625E-3
2.190572878E0,8.399150101E-4,-1.298050396E-3,1.450762269E-3,2.120165846E-3
2.192987305E0,-3.817795368E-4,-7.635590737E-5,-3.817795368E-4,5.452902476E-4
2.195401680E0,-1.679830020E-3,-7.635590737E-5,-3.817795368E-4,1.724359225E-3
2.197816107E0,-3.817795368E-4,1.145338640E-3,-9.926267667E-4,1.562966446E-3
2.200230534E0,2.290677221E-4,-6.872031372E-4,2.290677221E-4,7.597316595E-4
2.202644961E0,-3.817795368E-4,-7.635590737E-5,-3.817795368E-4,5.452902476E-4
2.205059388E0,-3.817795368E-4,5.344913807E-4,-3.817795368E-4,7.597317063E-4
2.207473763E0,-1.068982761E-3,-6.872031372E-4,-3.817795368E-4,1.326924229E-3
2.209888190E0,-1.068982761E-3,-7.635590737E-5,-9.926267667E-4,1.460774543E-3
2.212302617E0,-2.290677279E-3,1.756185899E-3,-3.817795368E-4,2.911554039E-3
2.214717044E0,-1.068982761E-3,-6.872031372E-4,-3.817795368E-4,1.326924229E-3
2.217131471E0,2.290677221E-4,-7.635590737E-5,8.399150101E-4,8.739333328E-4
2.219545899E0,-4.581354442E-4,5.344913807E-4,2.290677221E-4,7.402980093E-4
2.221960274E0,-1.068982761E-3,5.344913807E-4,2.290677221E-4,1.216912980E-3
2.224374701E0,-4.581354442E-4,-7.635590737E-5,-9.926267667E-4,1.095913413E-3
2.226789128E0,-1.068982761E-3,5.344913807E-4,2.290677221E-4,1.216912980E-3
2.229203555E0,-1.679830020E-3,-6.872031372E-4,-9.926267667E-4,2.068667433E-3
2.231617982E0,-2.290677279E-3,5.344913807E-4,2.290677221E-4,2.363335663E-3
2.234032357E0,8.399150101E-4,-6.872031372E-4,-2.214321401E-3,2.465953090E-3
2.236446784E0,-1.679830020E-3,-1.298050396E-3,8.399150101E-4,2.283028899E-3
2.238861211E0,-4.581354442E-4,-1.298050396E-3,2.290677221E-4,1.395455100E-3
2.241275638E0,-1.068982761E-3,-6.872031372E-4,-3.817795368E-4,1.326924229E-3
2.243690065E0,-1.679830020E-3,-1.298050396E-3,-9.926267667E-4,2.343516935E-3
2.246104492E0,-4.581354442E-4,-6.872031372E-4,-1.603474026E-3,1.803681011E-3
2.248518867E0,-4.581354442E-4,-6.872031372E-4,2.290677221E-4,8.570929111E-4
2.250933294E0,-4.581354442E-4,5.344913807E-4,8.399150101E-4,1.095913475E-3
2.253347721E0,-4.581354442E-4,5.344913807E-4,8.399150101E-4,1.095913475E-3
2.255762149E0,-4.581354442E-4,-7.635590737E-5,-3.817795368E-4,6.012270158E-4
2.258176576E0,-1.679830020E-3,5.344913807E-4,-3.817795368E-4,1.803681110E-3
2.260591003E0,8.399150101E-4,-6.872031372E-4,2.290677221E-4,1.109133625E-3
2.263005378E0,-2.290677279E-3,-7.635590737E-5,8.399150101E-4,2.441001812E-3
2.265419805E0,-1.068982761E-3,-1.908897655E-3,1.450762269E-3,2.625133437E-3
2.267834232E0,-4.581354442E-4,-1.298050396E-3,-1.603474026E-3,2.113279884E-3
2.270248659E0,2.290677221E-4,-6.872031372E-4,-9.926267667E-4,1.228831995E-3
2.272663086E0,-4.581354442E-4,1.145338640E-3,1.450762269E-3,1.904310859E-3
2.275077513E0,-1.068982761E-3,-7.635590737E-5,-3.817795368E-4,1.137677451E-3
2.277491888E0,-1.068982761E-3,-7.635590737E-5,-3.817795368E-4,1.137677451E-3
2.279906315E0,-4.581354442E-4,5.344913807E-4,8.399150101E-4,1.095913475E-3
2.282320742E0,8.399150101E-4,5.344913807E-4,-9.926267667E-4,1.405861358E-3
2.284735169E0,2.290677221E-4,-7.635590737E-5,-3.817795368E-4,4.517276399E-4
2.287149596E0,2.672456671E-3,1.145338640E-3,-9.926267667E-4,3.072317229E-3
2.289564024E0,-3.817795368E-4,1.145338640E-3,2.290677221E-4,1.228832062E-3
2.291978399E0,-3.817795368E-4,5.344913807E-4,8.399150101E-4,1.066252257E-3
2.294392826E0,-3.817795368E-4,5.344913807E-4,8.399150101E-4,1.066252257E-3
2.296807253E0,8.399150101E-4,-6.872031372E-4,1.450762269E-3,1.811744060E-3
2.299221680E0,-3.817795368E-4,-6.872031372E-4,2.290677221E-4,8.188258593E-4
2.301636107E0,8.399150101E-4,-6.872031372E-4,-3.817795368E-4,1.150417746E-3
2.304050482E0,1.450762269E-3,-6.872031372E-4,-3.817795368E-4,1.650065128E-3
2.306464909E0,8.399150101E-4,-6.872031372E-4,2.290677221E-4,1.109133625E-3
2.308879336E0,2.290677221E-4,5.344913807E-4,-9.926267667E-4,1.150417731E-3
2.311293763E0,-9.926267667E-4,1.145338640E-3,8.399150101E-4,1.732791309E-3
2.313708190E0,-3.817795368E-4,5.344913807E-4,-3.817795368E-4,7.597317063E-4
2.316122617E0,8.399150101E-4,1.145338640E-3,1.450762269E-3,2.030263280E-3
2.318536992E0,2.290677221E-4,-1.908897655E-3,8.399150101E-4,2.098051359E-3
2.320951419E0,-3.817795368E-4,-6.872031372E-4,2.290677221E-4,8.188258593E-4
2.323365846E0,-3.817795368E-4,-1.298050396E-3,-9.926267667E-4,1.678093664E-3
2.325780274E0,-1.603474026E-3,-0.000000000E0,-9.926267667E-4,1.885851757E-3
2.328194701E0,-3.817795368E-4,-0.000000000E0,-3.817795368E-4,5.399177988E-4
2.330609128E0,2.290677221E-4,1.221694518E-3,-9.926267667E-4,1.590697147E-3
2.333023503E0,1.527118147E-3,1.221694518E-3,-9.926267667E-4,2.193156453E-3
2.335437930E0,9.162708884E-4,-6.108472589E-4,2.290677221E-4,1.124792752E-3
2.337852357E0,2.290677221E-4,-6.108472589E-4,-2.214321401E-3,2.308424931E-3
2.340266784E0,-3.817795368E-4,-0.000000000E0,-1.603474026E-3,1.648297475E-3
2.342681211E0,9.162708884E-4,6.108472589E-4,-3.817795368E-4,1.165522342E-3
2.345095586E0,-3.817795368E-4,1.221694518E-3,2.290677221E-4,1.300294248E-3
2.347510013E0,9.162708884E-4,-6.108472589E-4,8.399150101E-4,1.384970736E-3
2.349924440E0,-9.926267667E-4,-6.108472589E-4,2.290677221E-4,1.187819133E-3
2.352338867E0,-3.817795368E-4,6.108472589E-4,2.290677221E-4,7.558849184E-4
2.354753294E0,9.162708884E-4,-0.000000000E0,2.290677221E-4,9.444704136E-4
2.357167721E0,9.162708884E-4,-0.000000000E0,2.290677221E-4,9.444704136E-4
2.359582096E0,9.162708884E-4,6.108472589E-4,-3.817795368E-4,1.165522342E-3
2.361996524E0,-3.817795368E-4,-0.000000000E0,2.290677221E-4,4.452276227E-4
2.364410951E0,-3.817795368E-4,6.108472589E-4,2.290677221E-4,7.558849184E-4
2.366825378E0,-9.926267667E-4,-6.108472589E-4,-3.817795368E-4,1.226457454E-3
2.369239805E0,-3.054236295E-4,-6.108472589E-4,2.290677221E-4,7.203401894E-4
2.371654232E0,3.054236295E-4,1.221694518E-3,-9.926267667E-4,1.603474037E-3
2.374068607E0,-9.926267667E-4,-0.000000000E0,-1.603474026E-3,1.885851757E-3
2.376483034E0,-3.054236295E-4,6.108472589E-4,-3.817795368E-4,7.824152235E-4
2.378897461E0,-9.926267667E-4,6.108472589E-4,-3.817795368E-4,1.226457454E-3
2.381311888E0,-3.054236295E-4,-0.000000000E0,2.290677221E-4,3.817795368E-4
2.383726315E0,3.054236295E-4,6.108472589E-4,-3.817795368E-4,7.824152235E-4
2.386140742E0,9.162708884E-4,6.108472589E-4,2.290677221E-4,1.124792752E-3
2.388555117E0,-3.054236295E-4,6.108472589E-4,-2.214321401E-3,2.317247771E-3
2.390969544E0,-3.054236295E-4,-0.000000000E0,-3.817795368E-4,4.889163611E-4
2.393383971E0,9.162708884E-4,6.108472589E-4,-1.603474026E-3,1.945203245E-3
2.395798399E0,-3.054236295E-4,-1.221694518E-3,2.290677221E-4,1.279958245E-3
2.398212826E0,-3.054236295E-4,6.108472589E-4,-9.926267667E-4,1.204875871E-3
2.400627201E0,-3.054236295E-4,6.108472589E-4,2.290677221E-4,7.203401894E-4
2.403041628E0,-9.162708884E-4,-1.221694518E-3,-9.926267667E-4,1.821372486E-3
2.405456055E0,-3.054236295E-4,-0.000000000E0,8.399150101E-4,8.937230095E-4
2.407870482E0,-9.162708884E-4,-0.000000000E0,-9.926267667E-4,1.350873880E-3
2.410284909E0,-3.054236295E-4,6.108472589E-4,1.527118147E-3,1.672874115E-3
2.412699336E0,9.162708884E-4,-0.000000000E0,-9.162708884E-4,1.295802717E-3
2.415113711E0,-3.054236295E-4,-0.000000000E0,9.162708884E-4,9.658343204E-4
2.417528138E0,9.162708884E-4,-0.000000000E0,-3.054236295E-4,9.658343204E-4
2.419942565E0,3.054236295E-4,-0.000000000E0,-3.054236295E-4,4.319342391E-4
2.422356992E0,3.054236295E-4,-6.108472589E-4,3.054236295E-4,7.481320476E-4
2.424771419E0,9.162708884E-4,6.108472589E-4,1.527118147E-3,1.882757698E-3
2.427185846E0,9.162708884E-4,-6.108472589E-4,-3.054236295E-4,1.142790579E-3
2.429600221E0,3.054236295E-4,6.108472589E-4,-3.054236295E-4,7.481320476E-4
2.432014649E0,-3.054236295E-4,-1.221694518E-3,3.054236295E-4,1.295802717E-3
2.434429076E0,-3.054236295E-4,-0.000000000E0,9.162708884E-4,9.658343204E-4
2.436843503E0,-9.162708884E-4,6.108472589E-4,3.054236295E-4,1.142790579E-3
2.439257930E0,9.162708884E-4,-0.000000000E0,9.162708884E-4,1.295802717E-3
2.441672357E0,3.054236295E-4,-6.108472589E-4,3.054236295E-4,7.481320476E-4
2.444086732E0,3.054236295E-4,-1.221694518E-3,-1.527118147E-3,1.979371346E-3
2.446501159E0,3.054236295E-4,-0.000000000E0,-3.054236295E-4,4.319342391E-4
2.448915586E0,3.054236295E-4,-0.000000000E0,3.054236295E-4,4.319342391E-4
2.451330013E0,-3.054236295E-4,1.221694518E-3,9.162708884E-4,1.557361047E-3
2.453744440E0,-9.162708884E-4,-0.000000000E0,3.054236295E-4,9.658343204E-4
2.456158815E0,-9.162708884E-4,1.221694518E-3,9.162708884E-4,1.780910491E-3
2.458573242E0,-9.162708884E-4,6.108472589E-4,1.527118147E-3,1.882757698E-3
2.460987669E0,-3.054236295E-4,-0.000000000E0,9.162708884E-4,9.658343204E-4
2.463402096E0,3.054236295E-4,1.221694518E-3,9.162708884E-4,1.557361047E-3
2.465816524E0,3.054236295E-4,6.108472589E-4,1.527118147E-3,1.672874115E-3
2.468230951E0,-9.162708884E-4,1.221694518E-3,3.054236295E-4,1.557361047E-3
2.470645326E0,-3.054236295E-4,-6.108472589E-4,3.054236295E-4,7.481320476E-4
2.473059753E0,-9.162708884E-4,1.221694518E-3,3.054236295E-4,1.557361047E-3
2.475474180E0,3.054236295E-4,5.344913807E-4,-1.527118147E-3,1.646528003E-3
2.477888607E0,-3.054236295E-4,-1.298050396E-3,-3.054236295E-4,1.368028515E-3
2.480303034E0,3.054236295E-4,-7.635590737E-5,-3.054236295E-4,4.386312933E-4
2.482717461E0,3.054236295E-4,5.344913807E-4,2.137965523E-3,2.224828354E-3
2.485131836E0,3.054236295E-4,-6.872031372E-4,-3.054236295E-4,8.116744043E-4
2.487546263E0,-3.054236295E-4,5.344913807E-4,9.162708884E-4,1.103864562E-3
2.489960690E0,-9.162708884E-4,-7.635590737E-5,-3.054236295E-4,9.688478513E-4
2.492375117E0,-2.137965523E-3,-1.298050396E-3,-3.054236295E-4,2.519745027E-3
2.494789544E0,-9.162708884E-4,5.344913807E-4,-3.054236295E-4,1.103864562E-3
2.497203919E0,-3.054236295E-4,1.756185899E-3,3.054236295E-4,1.808523181E-3
2.499618346E0,-3.054236295E-4,1.145338640E-3,3.054236295E-4,1.224078342E-3
2.502032774E0,-9.162708884E-4,-7.635590737E-5,-9.162708884E-4,1.298050425E-3
2.504447201E0,-9.162708884E-4,5.344913807E-4,9.162708884E-4,1.401708143E-3
2.506861628E0,-3.054236295E-4,-6.872031372E-4,3.054236295E-4,8.116744043E-4
2.509276003E0,-3.054236295E-4,-6.872031372E-4,3.054236295E-4,8.116744043E-4
2.511690430E0,3.054236295E-4,-7.635590737E-5,-1.527118147E-3,1.559231751E-3
2.514104857E0,3.054236295E-4,5.344913807E-4,3.054236295E-4,6.872031889E-4
2.516519284E0,1.603474026E-3,1.145338640E-3,-9.162708884E-4,2.173127215E-3
2.518933711E0,-3.054236295E-4,-7.635590737E-5,3.054236295E-4,4.386312933E-4
2.521348138E0,9.162708884E-4,-7.635590737E-5,-3.054236295E-4,9.688478513E-4
2.523762513E0,-9.162708884E-4,-7.635590737E-5,-3.054236295E-4,9.688478513E-4
2.526176940E0,-3.054236295E-4,-1.298050396E-3,-3.054236295E-4,1.368028515E-3
2.528591367E0,3.054236295E-4,5.344913807E-4,-1.527118147E-3,1.646528003E-3
2.531005794E0,1.603474026E-3,5.344913807E-4,3.054236295E-4,1.717583646E-3
2.533420221E0,9.926267667E-4,5.344913807E-4,3.054236295E-4,1.168020774E-3
2.535834649E0,-9.162708884E-4,1.145338640E-3,-3.054236295E-4,1.498211111E-3
2.538249024E0,3.054236295E-4,5.344913807E-4,3.054236295E-4,6.872031889E-4
2.540663451E0,3.054236295E-4,-6.872031372E-4,-3.054236295E-4,8.116744043E-4
2.543077878E0,1.603474026E-3,5.344913807E-4,-3.054236295E-4,1.717583646E-3
2.545492305E0,9.926267667E-4,-7.635590737E-5,9.162708884E-4,1.353030104E-3
2.547906732E0,9.926267667E-4,-7.635590737E-5,1.527118147E-3,1.822972287E-3
2.550321107E0,-9.162708884E-4,-6.872031372E-4,-3.054236295E-4,1.185362428E-3
2.552735534E0,-1.527118147E-3,-6.872031372E-4,-9.162708884E-4,1.908897674E-3
2.555149961E0,-3.054236295E-4,-7.635590737E-5,9.162708884E-4,9.688478513E-4
2.557564388E0,3.817795368E-4,-7.635590737E-5,1.527118147E-3,1.575968171E-3
2.559978815E0,-9.162708884E-4,-7.635590737E-5,3.054236295E-4,9.688478513E-4
2.562393242E0,-3.054236295E-4,-7.635590737E-5,3.054236295E-4,4.386312933E-4
2.564807617E0,-3.054236295E-4,-7.635590737E-5,9.162708884E-4,9.688478513E-4
2.567222044E0,3.817795368E-4,-6.872031372E-4,-1.527118147E-3,1.717583652E-3
2.569636471E0,3.817795368E-4,5.344913807E-4,3.054236295E-4,7.243757617E-4
2.572050899E0,3.817795368E-4,5.344913807E-4,9.162708884E-4,1.127381476E-3
2.574465326E0,-9.162708884E-4,5.344913807E-4,3.054236295E-4,1.103864562E-3
2.576879753E0,-9.162708884E-4,5.344913807E-4,-3.054236295E-4,1.103864562E-3
2.579294128E0,-9.162708884E-4,1.756185899E-3,9.162708884E-4,2.182497100E-3
2.581708555E0,-3.054236295E-4,-7.635590737E-5,3.054236295E-4,4.386312933E-4
2.584122982E0,3.817795368E-4,-7.635590737E-5,3.054236295E-4,4.948428364E-4
2.586537409E0,-3.054236295E-4,-7.635590737E-5,3.054236295E-4,4.386312933E-4
2.588951836E0,-3.054236295E-4,1.145338640E-3,9.162708884E-4,1.498211111E-3
2.591366263E0,3.817795368E-4,-6.872031372E-4,-9.162708884E-4,1.207292884E-3
2.593780638E0,-2.137965523E-3,-7.635590737E-5,-3.054236295E-4,2.161020683E-3
2.596195065E0,-1.527118147E-3,-6.872031372E-4,-9.162708884E-4,1.908897674E-3
2.598609492E0,9.926267667E-4,-1.298050396E-3,3.054236295E-4,1.662385732E-3
2.601023919E0,-9.162708884E-4,-6.872031372E-4,-3.054236295E-4,1.185362428E-3
2.603438346E0,3.817795368E-4,5.344913807E-4,3.054236295E-4,7.243757617E-4
2.605852721E0,3.817795368E-4,5.344913807E-4,-9.162708884E-4,1.127381476E-3
2.608267149E0,9.926267667E-4,-1.298050396E-3,-1.527118147E-3,2.236589494E-3
2.610681576E0,-9.162708884E-4,-6.872031372E-4,1.527118147E-3,1.908897674E-3
2.613096003E0,-2.290677221E-4,-7.635590737E-5,3.054236295E-4,3.893402616E-4
2.615510430E0,-2.290677221E-4,-6.872031372E-4,-3.054236295E-4,7.861321559E-4
2.617924805E0,-9.162708884E-4,-7.635590737E-5,-9.162708884E-4,1.298050425E-3
2.620339232E0,3.817795368E-4,-7.635590737E-5,3.054236295E-4,4.948428364E-4
2.622753659E0,-2.290677221E-4,-7.635590737E-5,9.162708884E-4,9.475518914E-4
2.625168086E0,-1.527118147E-3,-6.872031372E-4,9.162708884E-4,1.908897674E-3
2.627582513E0,-2.290677221E-4,-6.872031372E-4,9.162708884E-4,1.168020768E-3
2.629996940E0,3.817795368E-4,-7.635590737E-5,-3.054236295E-4,4.948428364E-4
2.632411315E0,-1.527118147E-3,5.344913807E-4,-9.162708884E-4,1.859387860E-3
2.634825742E0,-2.290677221E-4,-6.872031372E-4,3.054236295E-4,7.861321559E-4
2.637240169E0,-1.527118147E-3,-6.872031372E-4,-9.162708884E-4,1.908897674E-3
2.639654596E0,-2.290677221E-4,-1.908897655E-3,-1.527118147E-3,2.455290638E-3
2.642069024E0,3.817795368E-4,-7.635590737E-5,-9.162708884E-4,9.955592299E-4
2.644483399E0,-2.290677221E-4,1.145338640E-3,9.162708884E-4,1.484528532E-3
2.646897826E0,-8.399150101E-4,-7.635590737E-5,9.162708884E-4,1.245327182E-3
2.649312253E0,-8.399150101E-4,-2.519744914E-3,9.162708884E-4,2.809648376E-3
2.651726680E0,-8.399150101E-4,-1.298050396E-3,-3.054236295E-4,1.575968162E-3
2.654141107E0,3.817795368E-4,-6.872031372E-4,-3.054236295E-4,8.433785390E-4
2.656555534E0,-2.290677221E-4,-6.872031372E-4,1.527118147E-3,1.690210049E-3
2.658969909E0,3.817795368E-4,-7.635590737E-5,3.054236295E-4,4.948428364E-4
2.661384336E0,-2.290677221E-4,-6.872031372E-4,1.527118147E-3,1.690210049E-3
2.663798763E0,3.817795368E-4,5.344913807E-4,3.054236295E-4,7.243757617E-4
2.666213190E0,3.817795368E-4,5.344913807E-4,-3.054236295E-4,7.243757617E-4
2.668627617E0,9.926267667E-4,1.145338640E-3,-3.054236295E-4,1.546089289E-3
2.671042044E0,3.817795368E-4,5.344913807E-4,-1.527118147E-3,1.662385782E-3
2.673456419E0,3.817795368E-4,1.145338640E-3,-3.054236295E-4,1.245327189E-3
2.675870846E0,-8.399150101E-4,5.344913807E-4,1.527118147E-3,1.822972325E-3
2.678285274E0,3.817795368E-4,-6.872031372E-4,9.162708884E-4,1.207292884E-3
2.680699701E0,9.926267667E-4,-6.872031372E-4,-9.162708884E-4,1.515621454E-3
2.683114128E0,3.817795368E-4,-6.872031372E-4,-9.162708884E-4,1.207292884E-3
2.685528503E0,-2.290677221E-4,-7.635590737E-5,3.054236295E-4,3.893402616E-4
2.687942930E0,-2.290677221E-4,-1.298050396E-3,9.162708884E-4,1.605291000E-3
2.690357357E0,1.068982761E-3,-7.635590737E-5,-3.054236295E-4,1.114377836E-3
2.692771784E0,3.817795368E-4,1.145338640E-3,9.162708884E-4,1.515621508E-3
2.695186211E0,-8.399150101E-4,-1.298050396E-3,-9.162708884E-4,1.797204606E-3
2.697600638E0,-8.399150101E-4,5.344913807E-4,9.162708884E-4,1.353030155E-3
2.700015013E0,-1.450762269E-3,1.145338640E-3,1.527118147E-3,2.397624157E-3
2.702429440E0,3.817795368E-4,-7.635590737E-5,3.054236295E-4,4.948428364E-4
2.704843867E0,-2.290677221E-4,-7.635590737E-5,3.054236295E-4,3.893402616E-4
2.707258294E0,4.581354442E-4,5.344913807E-4,9.162708884E-4,1.155474561E-3
2.709672721E0,1.068982761E-3,5.344913807E-4,2.748812549E-3,2.997394804E-3
2.712087096E0,4.581354442E-4,-7.635590737E-5,-9.162708884E-4,1.027263671E-3
2.714501524E0,1.068982761E-3,-7.635590737E-5,9.162708884E-4,1.410002379E-3
2.716915951E0,-2.290677221E-4,-7.635590737E-5,8.399150101E-4,8.739333328E-4
2.719330378E0,1.679830020E-3,-7.635590737E-5,8.399150101E-4,1.879658572E-3
2.721744805E0,-2.290677221E-4,5.344913807E-4,2.290677221E-4,6.250000629E-4
2.724159232E0,1.068982761E-3,-6.872031372E-4,2.290677221E-4,1.291295596E-3
2.726573659E0,-2.290677221E-4,-6.872031372E-4,-1.603474026E-3,1.759502522E-3
2.728988034E0,-1.527118147E-4,5.344913807E-4,8.399150101E-4,1.007203633E-3
2.731402461E0,-8.399150101E-4,5.344913807E-4,2.290677221E-4,1.021572455E-3
2.733816888E0,4.581354442E-4,1.145338640E-3,8.399150101E-4,1.492362526E-3
2.736231315E0,-1.527118147E-4,-7.635590737E-5,-9.926267667E-4,1.007203565E-3
2.738645742E0,-8.399150101E-4,-7.635590737E-5,2.290677221E-4,8.739333328E-4
2.741060117E0,-1.450762269E-3,-7.635590737E-5,-3.817795368E-4,1.502097534E-3
2.743474544E0,-1.450762269E-3,5.344913807E-4,-3.817795368E-4,1.592528748E-3
2.745888971E0,-2.061609412E-3,1.145338640E-3,8.399150101E-4,2.503495794E-3
2.748303399E0,4.581354442E-4,-6.872031372E-4,-1.603474026E-3,1.803681011E-3
2.750717826E0,-1.527118147E-4,-7.635590737E-5,1.450762269E-3,1.460774549E-3
2.753132201E0,4.581354442E-4,-7.635590737E-5,-3.817795368E-4,6.012270158E-4
2.755546628E0,-1.450762269E-3,1.756185899E-3,8.399150101E-4,2.427829750E-3
2.757961055E0,-1.527118147E-4,1.756185899E-3,-1.603474026E-3,2.382989459E-3
2.760375482E0,4.581354442E-4,-6.872031372E-4,2.290677221E-4,8.570929111E-4
2.762789909E0,-1.527118147E-4,-6.872031372E-4,-1.603474026E-3,1.751199018E-3
2.765204336E0,4.581354442E-4,1.145338640E-3,-3.817795368E-4,1.291295589E-3
2.767618711E0,4.581354442E-4,1.145338640E-3,-3.817795368E-4,1.291295589E-3
2.770033138E0,-1.450762269E-3,-7.635590737E-5,-3.817795368E-4,1.502097534E-3
2.772447565E0,-1.527118147E-4,5.344913807E-4,-3.817795368E-4,6.743571377E-4
2.774861992E0,-1.527118147E-4,-7.635590737E-5,-9.926267667E-4,1.007203565E-3
2.777276419E0,-1.527118147E-4,5.344913807E-4,-3.817795368E-4,6.743571377E-4
2.779690794E0,-1.450762269E-3,1.145338640E-3,-9.926267667E-4,2.098051396E-3
2.782105221E0,-1.527118147E-4,5.344913807E-4,2.290677221E-4,6.012270417E-4
2.784519649E0,1.068982761E-3,-6.872031372E-4,2.290677221E-4,1.291295596E-3
2.786934076E0,4.581354442E-4,-6.872031372E-4,8.399150101E-4,1.177961570E-3
2.789348503E0,4.581354442E-4,-7.635590737E-5,-9.926267667E-4,1.095913413E-3
2.791762930E0,2.290677279E-3,-7.635590737E-5,-3.817795368E-4,2.323529263E-3
2.794177305E0,4.581354442E-4,-1.298050396E-3,-2.825168660E-3,3.142674160E-3
2.796591732E0,4.581354442E-4,5.344913807E-4,2.290677221E-4,7.402980093E-4
2.799006159E0,-1.527118147E-4,-7.635590737E-5,-9.926267667E-4,1.007203565E-3
2.801420586E0,1.068982761E-3,-6.872031372E-4,8.399150101E-4,1.523295612E-3
2.803835013E0,-1.450762269E-3,-6.872031372E-4,-3.817795368E-4,1.650065128E-3
2.806249440E0,-1.527118147E-4,-1.908897655E-3,-3.817795368E-4,1.952681943E-3
2.808663815E0,-1.527118147E-4,-6.872031372E-4,-9.926267667E-4,1.216912876E-3
2.811078242E0,4.581354442E-4,5.344913807E-4,-3.817795368E-4,8.008275320E-4
2.813492669E0,-7.635590737E-4,5.344913807E-4,-1.603474026E-3,1.854678529E-3
2.815907096E0,-7.635590737E-4,-7.635590737E-5,-3.817795368E-4,8.570929345E-4
2.818321524E0,4.581354442E-4,-7.635590737E-5,8.399150101E-4,9.597788985E-4
2.820735951E0,-1.527118147E-4,-6.872031372E-4,2.290677221E-4,7.402979613E-4
2.823150326E0,4.581354442E-4,5.344913807E-4,8.399150101E-4,1.095913475E-3
2.825564753E0,4.581354442E-4,1.145338640E-3,-9.926267667E-4,1.583349798E-3
2.827979180E0,-7.635590737E-4,-6.872031372E-4,-9.926267667E-4,1.428488190E-3
2.830393607E0,4.581354442E-4,-1.908897655E-3,-3.817795368E-4,1.999883486E-3
2.832808034E0,-1.527118147E-4,-7.635590737E-5,1.450762269E-3,1.460774549E-3
2.835222409E0,4.581354442E-4,-6.872031372E-4,2.290677221E-4,8.570929111E-4
2.837636836E0,-1.527118147E-4,5.344913807E-4,-3.817795368E-4,6.743571377E-4
2.840051263E0,-7.635590737E-4,5.344913807E-4,2.290677221E-4,9.597788893E-4
2.842465690E0,-1.527118147E-4,-6.872031372E-4,2.290677221E-4,7.402979613E-4
2.844880117E0,-7.635590737E-4,-6.872031372E-4,2.290677221E-4,1.052493531E-3
2.847294492E0,4.581354442E-4,-6.872031372E-4,-3.817795368E-4,9.098856257E-4
2.849708919E0,-1.527118147E-4,-6.872031372E-4,-9.926267667E-4,1.216912876E-3
2.852123346E0,4.581354442E-4,5.344913807E-4,-2.214321401E-3,2.323529296E-3
2.854537774E0,1.756185899E-3,5.344913807E-4,-9.926267667E-4,2.086906285E-3
2.856952201E0,1.068982761E-3,5.344913807E-4,-3.817795368E-4,1.254655648E-3
2.859366576E0,4.581354442E-4,5.344913807E-4,8.399150101E-4,1.095913475E-3
2.861781003E0,-1.527118147E-4,5.344913807E-4,-3.817795368E-4,6.743571377E-4
2.864195430E0,-1.527118147E-4,-6.872031372E-4,-3.817795368E-4,8.008274876E-4
2.866609857E0,-1.527118147E-4,-1.298050396E-3,2.290677221E-4,1.326924169E-3
2.869024284E0,-7.635590737E-4,-6.872031372E-4,-9.926267667E-4,1.428488190E-3
2.871438711E0,-1.527118147E-4,-1.298050396E-3,2.290677221E-4,1.326924169E-3
2.873853086E0,4.581354442E-4,-7.635590737E-5,-3.817795368E-4,6.012270158E-4
2.876267513E0,4.581354442E-4,5.344913807E-4,8.399150101E-4,1.095913475E-3
2.878681940E0,-1.527118147E-4,-7.635590737E-5,-3.817795368E-4,4.182185286E-4
2.881096367E0,-7.635590737E-4,-7.635590737E-5,-3.817795368E-4,8.570929345E-4
2.883510794E0,4.581354442E-4,5.344913807E-4,-9.926267667E-4,1.216912905E-3
2.885925221E0,-1.985253533E-3,-6.872031372E-4,-9.926267667E-4,2.323529135E-3
2.888339596E0,-1.527118147E-4,5.344913807E-4,8.399150101E-4,1.007203633E-3
2.890754024E0,-1.527118147E-4,5.344913807E-4,8.399150101E-4,1.007203633E-3
2.893168451E0,-7.635590737E-4,-1.298050396E-3,8.399150101E-4,1.724359160E-3
2.895582878E0,-1.527118147E-4,-6.872031372E-4,-3.817795368E-4,8.008274876E-4
2.897997305E0,-7.635590737E-4,-6.872031372E-4,-9.926267667E-4,1.428488190E-3
2.900411732E0,4.581354442E-4,1.145338640E-3,2.290677221E-4,1.254655612E-3
2.902826107E0,-1.527118147E-4,1.145338640E-3,2.672456671E-3,2.911553907E-3
2.905240534E0,-7.635590737E-4,-7.635590737E-5,8.399150101E-4,1.137677418E-3
2.907654961E0,-1.527118147E-4,-7.635590737E-5,-9.926267667E-4,1.007203565E-3
2.910069388E0,-1.527118147E-4,-6.872031372E-4,-1.603474026E-3,1.751199018E-3
2.912483815E0,-1.527118147E-4,-7.635590737E-5,-9.926267667E-4,1.007203565E-3
2.914898190E0,1.756185899E-3,1.145338640E-3,2.290677221E-4,2.109137627E-3
2.917312617E0,4.581354442E-4,5.344913807E-4,1.450762269E-3,1.612538459E-3
2.919727044E0,-7.635590737E-4,1.145338640E-3,8.399150101E-4,1.612538459E-3
2.922141471E0,-1.527118147E-4,-6.872031372E-4,2.137965523E-3,2.250881078E-3
2.924555899E0,4.581354442E-4,-6.872031372E-4,9.162708884E-4,1.233567419E-3
2.926970274E0,4.581354442E-4,-1.298050396E-3,3.054236295E-4,1.410002308E-3
2.929384701E0,-1.985253533E-3,-6.872031372E-4,-3.054236295E-4,2.122913879E-3
2.931799128E0,1.068982761E-3,-7.635590737E-5,-3.054236295E-4,1.114377836E-3
2.934213555E0,-1.527118147E-4,-6.872031372E-4,-9.162708884E-4,1.155474531E-3
2.936627982E0,1.068982761E-3,-7.635590737E-5,2.137965523E-3,2.391537360E-3
2.939042409E0,1.068982761E-3,-6.872031372E-4,-3.054236295E-4,1.307002636E-3
2.941456784E0,-1.527118147E-4,-7.635590737E-5,-3.054236295E-4,3.499067253E-4
2.943871211E0,1.068982761E-3,-7.635590737E-5,3.054236295E-4,1.114377836E-3
2.946285638E0,-1.527118147E-4,5.344913807E-4,9.162708884E-4,1.071706245E-3
2.948700065E0,4.581354442E-4,-7.635590737E-5,3.054236295E-4,5.558793963E-4
2.951114492E0,-1.527118147E-4,5.344913807E-4,9.162708884E-4,1.071706245E-3
2.953528867E0,-1.527118147E-4,-7.635590737E-5,3.054236295E-4,3.499067253E-4
2.955943294E0,-7.635590737E-4,-7.635590737E-5,3.054236295E-4,8.259154176E-4
2.958357721E0,-7.635590737E-4,-7.635590737E-5,3.054236295E-4,8.259154176E-4
2.960772149E0,-1.527118147E-4,5.344913807E-4,-1.527118147E-3,1.625143615E-3
2.963186576E0,1.145338640E-3,5.344913807E-4,3.054236295E-4,1.300294285E-3
2.965601003E0,-1.527118147E-4,-6.872031372E-4,9.162708884E-4,1.155474531E-3
2.968015378E0,1.145338640E-3,-1.298050396E-3,3.054236295E-4,1.757844994E-3
2.970429805E0,-7.635590737E-4,-7.635590737E-5,-2.137965523E-3,2.271508147E-3
2.972844232E0,2.977880416E-3,5.344913807E-4,-9.162708884E-4,3.161171484E-3
2.975258659E0,1.145338640E-3,-6.872031372E-4,-1.527118147E-3,2.028826899E-3
2.977673086E0,4.581354442E-4,-7.635590737E-5,3.054236295E-4,5.558793963E-4
2.980087513E0,-7.635590737E-4,5.344913807E-4,3.054236295E-4,9.808094048E-4
2.982501888E0,-7.635590737E-4,-7.635590737E-5,-9.162708884E-4,1.195158996E-3
2.984916315E0,-1.527118147E-4,-7.635590737E-5,-3.054236295E-4,3.499067253E-4
2.987330742E0,-7.635590737E-4,1.145338640E-3,-3.054236295E-4,1.410002359E-3
2.989745169E0,-1.985253533E-3,-7.635590737E-5,-3.054236295E-4,2.010061046E-3
2.992159596E0,4.581354442E-4,5.344913807E-4,3.054236295E-4,7.673673923E-4
2.994573971E0,-1.527118147E-4,-7.635590737E-5,-3.054236295E-4,3.499067253E-4
2.996988399E0,-7.635590737E-4,5.344913807E-4,3.054236295E-4,9.808094048E-4
2.999402826E0,1.145338640E-3,-7.635590737E-5,-3.054236295E-4,1.187819185E-3
3.001817253E0,1.145338640E-3,5.344913807E-4,-1.527118147E-3,1.982314675E-3
3.004231680E0,-1.527118147E-4,-6.872031372E-4,3.054236295E-4,7.673673459E-4
3.006646055E0,-1.527118147E-4,-6.872031372E-4,3.054236295E-4,7.673673459E-4
3.009060482E0,-1.527118147E-4,-6.872031372E-4,2.748812549E-3,2.837523476E-3
3.011474909E0,1.145338640E-3,-7.635590737E-5,-3.054236295E-4,1.187819185E-3
3.013889336E0,1.145338640E-3,-7.635590737E-5,2.137965523E-3,2.426628814E-3
3.016303763E0,-1.527118147E-4,-1.832541777E-3,-3.054236295E-4,1.864085260E-3
3.018718138E0,-1.527118147E-4,6.108472589E-4,1.527118147E-3,1.651830835E-3
3.021132565E0,4.581354442E-4,6.108472589E-4,-3.054236295E-4,8.223782903E-4
3.023546992E0,-7.635590737E-4,-0.000000000E0,9.162708884E-4,1.192717402E-3
3.025961419E0,-1.527118147E-4,-6.108472589E-4,9.162708884E-4,1.111758793E-3
3.028375846E0,4.581354442E-4,6.108472589E-4,1.527118147E-3,1.707369994E-3
3.030790274E0,1.756185899E-3,1.832541777E-3,9.162708884E-4,2.698508961E-3
3.033204649E0,1.068982761E-3,6.108472589E-4,-3.054236295E-4,1.268519653E-3
3.035619076E0,4.581354442E-4,-0.000000000E0,-3.054236295E-4,5.506102784E-4
3.038033503E0,-1.527118147E-4,1.221694518E-3,-3.054236295E-4,1.268519604E-3
3.040447930E0,4.581354442E-4,6.108472589E-4,9.162708884E-4,1.192717402E-3
3.042862357E0,1.068982761E-3,-0.000000000E0,-1.527118147E-3,1.864085293E-3
3.045276784E0,-1.985253533E-3,6.108472589E-4,1.527118147E-3,2.578072109E-3
3.047691159E0,-7.635590737E-4,6.108472589E-4,3.054236295E-4,1.024421996E-3
3.050105586E0,-1.527118147E-4,-0.000000000E0,3.054236295E-4,3.414739987E-4
3.052520013E0,4.581354442E-4,-6.108472589E-4,-9.162708884E-4,1.192717402E-3
3.054934440E0,-7.635590737E-4,6.108472589E-4,3.054236295E-4,1.024421996E-3
3.057348867E0,-7.635590737E-4,-0.000000000E0,-9.162708884E-4,1.192717402E-3
3.059763242E0,4.581354442E-4,-6.108472589E-4,-3.054236295E-4,8.223782903E-4
3.062177669E0,1.756185899E-3,1.221694518E-3,-9.162708884E-4,2.327290000E-3
3.064592096E0,-7.635590737E-4,-0.000000000E0,1.527118147E-3,1.707369994E-3
3.067006524E0,-7.635590737E-4,-0.000000000E0,3.054236295E-4,8.223782903E-4
3.069420951E0,1.679830020E-3,-0.000000000E0,9.162708884E-4,1.913473605E-3
3.071835326E0,1.068982761E-3,1.832541777E-3,1.527118147E-3,2.614005230E-3
3.074249753E0,-1.374406274E-3,1.221694518E-3,3.054236295E-4,1.864085217E-3
3.076664180E0,-7.635590737E-4,6.108472589E-4,1.527118147E-3,1.813352329E-3
3.079078607E0,1.679830020E-3,-6.108472589E-4,-9.162708884E-4,2.008610368E-3
3.081493034E0,4.581354442E-4,-6.108472589E-4,-9.162708884E-4,1.192717402E-3
3.083907461E0,-1.374406274E-3,6.108472589E-4,-3.054236295E-4,1.534734692E-3
3.086321836E0,-1.374406274E-3,-6.108472589E-4,-9.162708884E-4,1.761158517E-3
3.088736263E0,4.581354442E-4,-0.000000000E0,-3.054236295E-4,5.506102784E-4
3.091150690E0,4.581354442E-4,6.108472589E-4,-9.162708884E-4,1.192717402E-3
3.093565117E0,-1.527118147E-4,6.108472589E-4,-3.054236295E-4,6.998134505E-4
3.095979544E0,4.581354442E-4,6.108472589E-4,1.527118147E-3,1.707369994E-3
3.098393971E0,-7.635590737E-4,-0.000000000E0,-9.926267667E-4,1.252329971E-3
3.100808346E0,1.679830020E-3,-6.108472589E-4,-9.926267667E-4,2.044571145E-3
3.103222774E0,-1.527118147E-4,-7.635590737E-5,1.450762269E-3,1.460774549E-3
3.105637201E0,4.581354442E-4,-7.635590737E-5,2.672456671E-3,2.712515984E-3
3.108051628E0,4.581354442E-4,-7.635590737E-5,1.450762269E-3,1.523295595E-3
3.110466003E0,1.068982761E-3,-7.635590737E-5,-9.926267667E-4,1.460774543E-3
3.112880430E0,-7.635590737E-4,-6.872031372E-4,-3.817795368E-4,1.095913421E-3
3.115294857E0,-1.450762269E-3,1.145338640E-3,-3.817795368E-4,1.887396984E-3
3.117709284E0,4.581354442E-4,-6.872031372E-4,2.290677221E-4,8.570929111E-4
3.120123711E0,1.679830020E-3,-1.298050396E-3,-2.214321401E-3,3.067569558E-3
3.122538138E0,-1.527118147E-4,-1.908897655E-3,-3.817795368E-4,1.952681943E-3
3.124952513E0,-1.527118147E-4,-7.635590737E-5,-9.926267667E-4,1.007203565E-3
3.127366940E0,4.581354442E-4,-6.872031372E-4,-3.817795368E-4,9.098856257E-4
3.129781367E0,-7.635590737E-4,-6.872031372E-4,-3.817795368E-4,1.095913421E-3
3.132195794E0,4.581354442E-4,-6.872031372E-4,8.399150101E-4,1.177961570E-3
3.134610221E0,4.581354442E-4,1.145338640E-3,-1.603474026E-3,2.023071337E-3
3.137024649E0,1.068982761E-3,1.145338640E-3,2.290677221E-4,1.583349855E-3
3.139439024E0,-1.527118147E-4,1.145338640E-3,2.290677221E-4,1.177961595E-3
3.141853451E0,-1.527118147E-4,-7.635590737E-5,2.290677221E-4,2.856976448E-4
3.144267878E0,-8.399150101E-4,-6.872031372E-4,8.399150101E-4,1.372283717E-3
3.146682305E0,-8.399150101E-4,-7.635590737E-5,-1.603474026E-3,1.811744022E-3
3.149096732E0,-1.527118147E-4,-7.635590737E-5,-2.214321401E-3,2.220894052E-3
3.151511107E0,-8.399150101E-4,-6.872031372E-4,-2.214321401E-3,2.465953090E-3
3.153925534E0,1.068982761E-3,-7.635590737E-5,1.450762269E-3,1.803681105E-3
3.156339961E0,1.068982761E-3,5.344913807E-4,8.399150101E-4,1.460774591E-3
3.158754388E0,-1.527118147E-4,-6.872031372E-4,2.290677221E-4,7.402979613E-4
3.161168815E0,1.679830020E-3,-6.872031372E-4,-3.817795368E-4,1.854678588E-3
3.163583242E0,-1.527118147E-4,5.344913807E-4,2.290677221E-4,6.012270417E-4
3.165997617E0,1.679830020E-3,5.344913807E-4,2.290677221E-4,1.777633808E-3
3.168412044E0,1.068982761E-3,5.344913807E-4,1.450762269E-3,1.879658570E-3
3.170826471E0,-8.399150101E-4,-7.635590737E-5,1.450762269E-3,1.678093743E-3
3.173240899E0,-8.399150101E-4,5.344913807E-4,8.399150101E-4,1.302534255E-3
3.175655326E0,-1.527118147E-4,1.756185899E-3,2.290677221E-4,1.777633773E-3
3.178069701E0,4.581354442E-4,-7.635590737E-5,-9.926267667E-4,1.095913413E-3
3.180484128E0,-2.290677221E-4,5.344913807E-4,-3.817795368E-4,6.956354448E-4
3.182898555E0,-2.290677221E-4,-7.635590737E-5,-3.817795368E-4,4.517276399E-4
3.185312982E0,4.581354442E-4,-7.635590737E-5,-3.817795368E-4,6.012270158E-4
3.187727409E0,4.581354442E-4,-7.635590737E-5,-9.926267667E-4,1.095913413E-3
3.190141784E0,1.068982761E-3,-6.872031372E-4,-9.926267667E-4,1.612538432E-3
3.192556211E0,4.581354442E-4,-7.635590737E-5,8.399150101E-4,9.597788985E-4
3.194970638E0,4.581354442E-4,-6.872031372E-4,8.399150101E-4,1.177961570E-3
3.197385065E0,1.068982761E-3,-7.635590737E-5,-9.926267667E-4,1.460774543E-3
3.199799492E0,-2.290677221E-4,-7.635590737E-5,8.399150101E-4,8.739333328E-4
3.202213919E0,4.581354442E-4,-1.298050396E-3,2.290677221E-4,1.395455100E-3
3.204628294E0,-1.450762269E-3,5.344913807E-4,-3.817795368E-4,1.592528748E-3
3.207042721E0,3.817795368E-4,-7.635590737E-5,2.061609412E-3,2.098051288E-3
3.209457149E0,-8.399150101E-4,-7.635590737E-5,2.290677221E-4,8.739333328E-4
3.211871576E0,-2.290677221E-4,1.145338640E-3,1.450762269E-3,1.862520814E-3
3.214286003E0,-8.399150101E-4,1.145338640E-3,8.399150101E-4,1.650065165E-3
3.216700378E0,3.817795368E-4,5.344913807E-4,8.399150101E-4,1.066252257E-3
3.219114805E0,1.068982761E-3,-7.635590737E-5,-1.603474026E-3,1.928648055E-3
3.221529232E0,1.068982761E-3,-1.298050396E-3,-3.817795368E-4,1.724359182E-3
3.223943659E0,-1.450762269E-3,-7.635590737E-5,-9.926267667E-4,1.759502567E-3
3.226358086E0,-2.290677221E-4,-7.635590737E-5,-3.817795368E-4,4.517276399E-4
3.228772513E0,-8.399150101E-4,5.344913807E-4,-3.817795368E-4,1.066252257E-3
3.231186888E0,-2.290677221E-4,-7.635590737E-5,8.399150101E-4,8.739333328E-4
3.233601315E0,-2.290677221E-4,-7.635590737E-5,2.290677221E-4,3.328276840E-4
3.236015742E0,3.817795368E-4,-7.635590737E-5,2.290677221E-4,4.517276399E-4
3.238430169E0,-2.290677221E-4,5.344913807E-4,1.450762269E-3,1.562966480E-3
3.240844596E0,-2.290677221E-4,-7.635590737E-5,-3.817795368E-4,4.517276399E-4
3.243258971E0,-8.399150101E-4,-7.635590737E-5,2.290677221E-4,8.739333328E-4
3.245673399E0,-8.399150101E-4,-7.635590737E-5,2.290677221E-4,8.739333328E-4
3.248087826E0,-2.290677221E-4,5.344913807E-4,2.290677221E-4,6.250000629E-4
3.250502253E0,3.817795368E-4,-6.872031372E-4,-3.817795368E-4,8.739332819E-4
3.252916680E0,9.926267667E-4,5.344913807E-4,-3.817795368E-4,1.190270788E-3
3.255331107E0,-1.450762269E-3,1.756185899E-3,2.290677221E-4,2.289404310E-3
3.257745482E0,-2.290677221E-4,5.344913807E-4,2.290677221E-4,6.250000629E-4
3.260159909E0,-8.399150101E-4,-7.635590737E-5,2.290677221E-4,8.739333328E-4
3.262574336E0,-2.290677221E-4,1.756185899E-3,8.399150101E-4,1.960132178E-3
3.264988763E0,3.817795368E-4,-6.872031372E-4,-3.817795368E-4,8.739332819E-4
3.267403190E0,-2.290677221E-4,-7.635590737E-5,1.450762269E-3,1.470718670E-3
3.269817565E0,3.817795368E-4,5.344913807E-4,-3.817795368E-4,7.597317063E-4
3.272231992E0,-2.290677221E-4,-7.635590737E-5,1.450762269E-3,1.470718670E-3
3.274646419E0,-2.290677221E-4,5.344913807E-4,8.399150101E-4,1.021572455E-3
3.277060846E0,-2.290677221E-4,-7.635590737E-5,2.290677221E-4,3.328276840E-4
3.279475274E0,-8.399150101E-4,5.344913807E-4,-3.817795368E-4,1.066252257E-3
3.281889649E0,3.817795368E-4,-7.635590737E-5,-9.926267667E-4,1.066252192E-3
3.284304076E0,3.817795368E-4,5.344913807E-4,-2.214321401E-3,2.309687407E-3
3.286718503E0,-2.290677221E-4,-7.635590737E-5,-9.926267667E-4,1.021572388E-3
3.289132930E0,3.817795368E-4,1.145338640E-3,-9.926267667E-4,1.562966446E-3
3.291547357E0,9.926267667E-4,5.344913807E-4,-9.926267667E-4,1.502097477E-3
3.293961784E0,3.817795368E-4,-7.635590737E-5,-3.817795368E-4,5.452902476E-4
3.296376159E0,1.603474026E-3,-6.872031372E-4,-3.817795368E-4,1.785814301E-3
3.298790586E0,-1.450762269E-3,5.344913807E-4,-3.817795368E-4,1.592528748E-3
3.301205013E0,-1.450762269E-3,5.344913807E-4,2.672456671E-3,3.087461231E-3
3.303619440E0,-2.290677221E-4,-6.872031372E-4,-3.817795368E-4,8.188258593E-4
3.306033867E0,-2.290677221E-4,-7.635590737E-5,8.399150101E-4,8.739333328E-4
3.308448242E0,-8.399150101E-4,5.344913807E-4,-9.926267667E-4,1.405861358E-3
3.310862669E0,-2.290677221E-4,-7.635590737E-5,8.399150101E-4,8.739333328E-4
3.313277096E0,-2.290677221E-4,5.344913807E-4,-3.817795368E-4,6.956354448E-4
3.315691524E0,-2.290677221E-4,1.756185899E-3,2.290677221E-4,1.785814367E-3
3.318105951E0,-8.399150101E-4,-7.635590737E-5,8.399150101E-4,1.190270840E-3
3.320520378E0,-2.290677221E-4,-1.298050396E-3,1.450762269E-3,1.960132142E-3
3.322934753E0,-8.399150101E-4,-7.635590737E-5,1.450762269E-3,1.678093743E-3
3.325349180E0,-1.450762269E-3,-7.635590737E-5,2.290677221E-4,1.470718670E-3
3.327763607E0,-2.290677221E-4,-7.635590737E-5,8.399150101E-4,8.739333328E-4
3.330178034E0,3.817795368E-4,5.344913807E-4,-3.817795368E-4,7.597317063E-4
3.332592461E0,3.817795368E-4,5.344913807E-4,2.290677221E-4,6.956354448E-4
3.335006836E0,-2.290677221E-4,1.145338640E-3,-3.817795368E-4,1.228832062E-3
3.337421263E0,-2.290677221E-4,-1.298050396E-3,2.290677221E-4,1.337863548E-3
3.339835690E0,3.817795368E-4,1.145338640E-3,8.399150101E-4,1.470718681E-3
3.342250117E0,3.817795368E-4,5.344913807E-4,2.290677221E-4,6.956354448E-4
3.344664544E0,-8.399150101E-4,-6.872031372E-4,-3.817795368E-4,1.150417746E-3
3.347078919E0,-8.399150101E-4,-1.298050396E-3,2.290677221E-4,1.562966435E-3
3.349493346E0,-8.399150101E-4,-6.872031372E-4,-3.817795368E-4,1.150417746E-3
3.351907774E0,-8.399150101E-4,-6.872031372E-4,-3.817795368E-4,1.150417746E-3
3.354322201E0,-2.290677221E-4,-1.298050396E-3,2.290677221E-4,1.337863548E-3
3.356736628E0,-2.290677221E-4,-1.298050396E-3,-3.817795368E-4,1.372283669E-3
3.359151055E0,-8.399150101E-4,-7.635590737E-5,8.399150101E-4,1.190270840E-3
3.361565430E0,9.926267667E-4,-7.635590737E-5,-1.603474026E-3,1.887396904E-3
3.363979857E0,-1.450762269E-3,4.581354442E-4,2.290677221E-4,1.538528930E-3
3.366394284E0,-8.399150101E-4,-7.635590737E-4,-3.817795368E-4,1.197595632E-3
3.368808711E0,3.817795368E-4,-1.527118147E-4,-1.603474026E-3,1.655356597E-3
3.371223138E0,1.679830020E-3,1.068982761E-3,-1.603474026E-3,2.556497994E-3
3.373637565E0,3.817795368E-4,4.581354442E-4,2.290677221E-4,6.388393548E-4
3.376051940E0,9.926267667E-4,1.068982761E-3,1.450762269E-3,2.057363168E-3
3.378466367E0,9.926267667E-4,4.581354442E-4,2.290677221E-4,1.116990602E-3
3.380880794E0,3.817795368E-4,-7.635590737E-4,-3.817795368E-4,9.351650595E-4
3.383295221E0,-8.399150101E-4,-1.527118147E-4,-3.817795368E-4,9.351650856E-4
3.385709649E0,-2.290677221E-4,-1.527118147E-4,2.290677221E-4,3.581409513E-4
3.388124024E0,-8.399150101E-4,1.068982761E-3,-1.603474026E-3,2.102215574E-3
3.390538451E0,3.817795368E-4,4.581354442E-4,8.399150101E-4,1.030097531E-3
3.392952878E0,3.817795368E-4,-7.635590737E-4,2.290677221E-4,8.838835303E-4
3.395367305E0,-2.290677221E-4,-1.527118147E-4,1.450762269E-3,1.476653000E-3
3.397781732E0,-8.399150101E-4,-1.527118147E-4,2.290677221E-4,8.838835579E-4
3.400196107E0,3.817795368E-4,-1.527118147E-4,8.399150101E-4,9.351650856E-4
3.402610534E0,-2.290677221E-4,-7.635590737E-4,-3.817795368E-4,8.838835303E-4
3.405024961E0,3.817795368E-4,-7.635590737E-4,1.450762269E-3,1.683297132E-3
3.407439388E0,-2.290677221E-4,-1.527118147E-4,-9.926267667E-4,1.030097480E-3
3.409853815E0,4.581354442E-4,-1.527118147E-4,2.061609412E-3,2.117414071E-3
3.412268190E0,-2.290677221E-4,-7.635590737E-4,2.290677221E-4,8.294374609E-4
3.414682617E0,-2.290677221E-4,-1.527118147E-4,-3.817795368E-4,4.706894246E-4
3.417097044E0,-2.290677221E-4,4.581354442E-4,-9.926267667E-4,1.116990602E-3
3.419511471E0,1.679830020E-3,1.068982761E-3,-3.817795368E-4,2.027389616E-3
3.421925899E0,-8.399150101E-4,4.581354442E-4,-9.926267667E-4,1.378641798E-3
3.424340326E0,-1.450762269E-3,-7.635590737E-4,2.290677221E-4,1.655356651E-3
3.426754701E0,-8.399150101E-4,-1.374406274E-3,-3.817795368E-4,1.655356592E-3
3.429169128E0,-2.290677221E-4,-1.374406274E-3,-3.817795368E-4,1.444721511E-3
3.431583555E0,-2.061609412E-3,4.581354442E-4,-9.926267667E-4,2.333544375E-3
3.433997982E0,-1.450762269E-3,-7.635590737E-4,-3.817795368E-4,1.683297132E-3
3.436412409E0,1.068982761E-3,-7.635590737E-4,1.450762269E-3,1.957155529E-3
3.438826784E0,1.679830020E-3,-7.635590737E-4,-3.817795368E-4,1.884305435E-3
3.441241211E0,4.581354442E-4,-1.527118147E-4,8.399150101E-4,9.688478765E-4
3.443655638E0,1.068982761E-3,-1.527118147E-4,-9.926267667E-4,1.466749106E-3
3.446070065E0,-1.527118147E-4,4.581354442E-4,-3.817795368E-4,6.156010058E-4
3.448484492E0,-1.527118147E-4,4.581354442E-4,-9.926267667E-4,1.103864521E-3
3.450898867E0,-1.450762269E-3,-7.635590737E-4,1.450762269E-3,2.189165316E-3
3.453313294E0,1.068982761E-3,-1.527118147E-4,-3.817795368E-4,1.145338665E-3
3.455727721E0,4.581354442E-4,-1.527118147E-4,2.290677221E-4,5.344913516E-4
3.458142149E0,-1.450762269E-3,-7.635590737E-4,-9.926267667E-4,1.916518071E-3
3.460556576E0,-8.399150101E-4,4.581354442E-4,2.290677221E-4,9.837770737E-4
3.462970951E0,1.068982761E-3,-7.635590737E-4,8.399150101E-4,1.559231807E-3
3.465385378E0,1.679830020E-3,-7.635590737E-4,1.450762269E-3,2.347245730E-3
3.467799805E0,-8.399150101E-4,-1.374406274E-3,2.290677221E-4,1.626936339E-3
3.470214232E0,-1.527118147E-4,-1.374406274E-3,8.399150101E-4,1.617952635E-3
3.472628659E0,-1.527118147E-4,-7.635590737E-4,-3.817795368E-4,8.672363992E-4
3.475043086E0,-2.061609412E-3,4.581354442E-4,-1.603474026E-3,2.651650505E-3
3.477457461E0,-2.061609412E-3,4.581354442E-4,-9.926267667E-4,2.333544375E-3
3.479871888E0,-1.527118147E-4,-1.527118147E-4,-3.817795368E-4,4.386312933E-4
3.482286315E0,1.679830020E-3,-1.527118147E-4,8.399150101E-4,1.884305448E-3
3.484700742E0,-7.635590737E-4,-7.635590737E-4,8.399150101E-4,1.368028560E-3
3.487115169E0,-7.635590737E-4,4.581354442E-4,2.290677221E-4,9.194468802E-4
3.489529596E0,4.581354442E-4,-1.527118147E-4,-3.817795368E-4,6.156010058E-4
3.491943971E0,-7.635590737E-4,4.581354442E-4,2.290677221E-4,9.194468802E-4
3.494358399E0,-1.527118147E-4,1.068982761E-3,1.450762269E-3,1.808523211E-3
3.496772826E0,1.679830020E-3,-1.527118147E-4,8.399150101E-4,1.884305448E-3
3.499187253E0,4.581354442E-4,4.581354442E-4,-3.817795368E-4,7.520184740E-4
3.501601680E0,1.068982761E-3,-1.527118147E-4,2.290677221E-4,1.103864604E-3
3.504016055E0,4.581354442E-4,4.581354442E-4,2.290677221E-4,6.872031663E-4
3.506430482E0,-7.635590737E-4,4.581354442E-4,8.399150101E-4,1.224078334E-3
3.508844909E0,4.581354442E-4,-7.635590737E-5,2.290677221E-4,5.178709599E-4
3.511259336E0,4.581354442E-4,-6.872031372E-4,1.450762269E-3,1.669385336E-3
3.513673763E0,-7.635590737E-4,-6.872031372E-4,2.290677221E-4,1.052493531E-3
3.516088138E0,-1.527118147E-4,5.344913807E-4,-9.926267667E-4,1.137677385E-3
3.518502565E0,-7.635590737E-4,-7.635590737E-5,8.399150101E-4,1.137677418E-3
3.520916992E0,-1.527118147E-4,-7.635590737E-5,-9.926267667E-4,1.007203565E-3
3.523331419E0,4.581354442E-4,-6.872031372E-4,2.061609412E-3,2.220893875E-3
3.525745846E0,4.581354442E-4,-7.635590737E-5,-3.817795368E-4,6.012270158E-4
3.528160274E0,1.068982761E-3,-7.635590737E-5,2.290677221E-4,1.095913496E-3
3.530574649E0,4.581354442E-4,1.145338640E-3,-3.817795368E-4,1.291295589E-3
3.532989076E0,-1.527118147E-4,1.145338640E-3,2.672456671E-3,2.911553907E-3
3.535403503E0,1.679830020E-3,-7.635590737E-5,-3.817795368E-4,1.724359225E-3
3.537817930E0,4.581354442E-4,-7.635590737E-5,8.399150101E-4,9.597788985E-4
3.540232357E0,4.581354442E-4,1.145338640E-3,1.527118147E-4,1.242984144E-3
3.542646732E0,1.756185899E-3,-7.635590737E-5,7.635590737E-4,1.916518091E-3
3.545061159E0,4.581354442E-4,-7.635590737E-5,-4.581354442E-4,6.523851585E-4
3.547475586E0,1.068982761E-3,-7.635590737E-5,7.635590737E-4,1.315893927E-3
3.549890013E0,-1.527118147E-4,-6.872031372E-4,-4.581354442E-4,8.399149572E-4
3.552304440E0,-7.635590737E-4,1.145338640E-3,-4.581354442E-4,1.450762263E-3
3.554718815E0,-1.527118147E-4,5.344913807E-4,7.635590737E-4,9.444704301E-4
3.557133242E0,-7.635590737E-4,-1.298050396E-3,-4.581354442E-4,1.574117332E-3
3.559547669E0,4.581354442E-4,-6.872031372E-4,-4.581354442E-4,9.444703925E-4
3.561962096E0,4.581354442E-4,-6.872031372E-4,-4.581354442E-4,9.444703925E-4
3.564376524E0,-1.374406274E-3,-6.872031372E-4,1.374406274E-3,2.061609412E-3
3.566790899E0,-7.635590737E-4,-7.635590737E-5,1.374406274E-3,1.574117305E-3
3.569205326E0,4.581354442E-4,-7.635590737E-5,-1.068982761E-3,1.165522395E-3
3.571619753E0,1.756185899E-3,-7.635590737E-5,-1.068982761E-3,2.057363186E-3
3.574034180E0,-1.527118147E-4,-6.872031372E-4,-1.068982761E-3,1.279958278E-3
3.576448607E0,-1.527118147E-4,-1.908897655E-3,-1.068982761E-3,2.193156470E-3
3.578863034E0,1.068982761E-3,-6.872031372E-4,-4.581354442E-4,1.350873932E-3
3.581277409E0,1.068982761E-3,1.145338640E-3,7.635590737E-4,1.742856048E-3
3.583691836E0,-1.527118147E-4,5.344913807E-4,7.635590737E-4,9.444704301E-4
3.586106263E0,1.068982761E-3,-6.872031372E-4,7.635590737E-4,1.482563575E-3
3.588520690E0,-1.527118147E-4,1.145338640E-3,-2.290677279E-3,2.565604002E-3
3.590935117E0,4.581354442E-4,1.145338640E-3,7.635590737E-4,1.450762263E-3
3.593349492E0,4.581354442E-4,-7.635590737E-5,-4.581354442E-4,6.523851585E-4
3.595763919E0,4.581354442E-4,-6.872031372E-4,1.527118147E-4,8.399149572E-4
3.598178346E0,4.581354442E-4,-7.635590737E-5,-1.068982761E-3,1.165522395E-3
3.600592774E0,-1.527118147E-4,-7.635590737E-5,7.635590737E-4,7.824152235E-4
3.603007201E0,1.068982761E-3,-7.635590737E-5,1.527118147E-4,1.082531878E-3
3.605421628E0,-1.527118147E-4,-6.872031372E-4,-4.581354442E-4,8.399149572E-4
3.607836003E0,4.581354442E-4,-7.635590737E-5,1.527118147E-4,4.889163611E-4
3.610250430E0,-1.374406274E-3,1.145338640E-3,1.527118147E-4,1.795581829E-3
3.612664857E0,4.581354442E-4,-6.872031372E-4,7.635590737E-4,1.124792735E-3
3.615079284E0,-1.527118147E-4,-7.635590737E-5,7.635590737E-4,7.824152235E-4
3.617493711E0,-7.635590737E-4,-6.872031372E-4,1.527118147E-4,1.038552603E-3
3.619908086E0,-7.635590737E-4,5.344913807E-4,-4.581354442E-4,1.038552637E-3
3.622322513E0,-1.527118147E-4,-7.635590737E-5,-1.068982761E-3,1.082531878E-3
3.624736940E0,4.581354442E-4,-7.635590737E-5,-4.581354442E-4,6.523851585E-4
3.627151367E0,-1.527118147E-4,-6.872031372E-4,1.527118147E-4,7.203401617E-4
3.629565794E0,-7.635590737E-4,-1.298050396E-3,1.527118147E-4,1.513696861E-3
3.631980169E0,-7.635590737E-4,-7.635590737E-5,-1.068982761E-3,1.315893927E-3
3.634394596E0,-7.635590737E-4,5.344913807E-4,1.527118147E-4,9.444704301E-4
3.636809024E0,1.068982761E-3,-1.298050396E-3,-4.581354442E-4,1.742856007E-3
3.639223451E0,-1.527118147E-4,-6.872031372E-4,1.527118147E-4,7.203401617E-4
3.641637878E0,4.581354442E-4,-6.872031372E-4,1.527118147E-4,8.399149572E-4
3.644052305E0,-1.527118147E-4,5.344913807E-4,-1.068982761E-3,1.204875960E-3
3.646466680E0,-1.527118147E-4,-6.872031372E-4,-4.581354442E-4,8.399149572E-4
3.648881107E0,1.068982761E-3,-7.635590737E-5,-4.581354442E-4,1.165522395E-3
3.651295534E0,1.068982761E-3,1.145338640E-3,-1.068982761E-3,1.896641476E-3
3.653709961E0,-7.635590737E-4,5.344913807E-4,1.527118147E-4,9.444704301E-4
3.656124388E0,4.581354442E-4,-7.635590737E-5,-1.068982761E-3,1.165522395E-3
3.658538763E0,-1.450762269E-3,-1.298050396E-3,1.527118147E-4,1.952681974E-3
3.660953190E0,1.068982761E-3,-6.872031372E-4,-4.581354442E-4,1.350873932E-3
3.663367617E0,-1.527118147E-4,-7.635590737E-5,1.985253533E-3,1.992581922E-3
3.665782044E0,4.581354442E-4,5.344913807E-4,1.527118147E-4,7.203402110E-4
3.668196471E0,4.581354442E-4,5.344913807E-4,1.527118147E-4,7.203402110E-4
3.670610846E0,1.679830020E-3,-6.872031372E-4,7.635590737E-4,1.969035172E-3
3.673025274E0,-1.527118147E-4,5.344913807E-4,1.985253533E-3,2.061609450E-3
3.675439701E0,4.581354442E-4,5.344913807E-4,7.635590737E-4,1.038552637E-3
3.677854128E0,1.068982761E-3,-7.635590737E-5,-4.581354442E-4,1.165522395E-3
3.680268555E0,4.581354442E-4,-1.908897655E-3,1.374406274E-3,2.396407926E-3
3.682682982E0,-8.399150101E-4,-6.872031372E-4,7.635590737E-4,1.326924201E-3
3.685097357E0,-8.399150101E-4,-7.635590737E-5,1.374406274E-3,1.612538389E-3
3.687511784E0,-1.527118147E-4,-6.872031372E-4,1.374406274E-3,1.544202596E-3
3.689926211E0,4.581354442E-4,-6.872031372E-4,1.527118147E-4,8.399149572E-4
3.692340638E0,-8.399150101E-4,1.145338640E-3,-1.068982761E-3,1.777633811E-3
3.694755065E0,1.068982761E-3,-7.635590737E-5,-1.068982761E-3,1.513696969E-3
3.697169440E0,1.068982761E-3,-1.298050396E-3,-1.679830020E-3,2.376865135E-3
3.699583867E0,1.068982761E-3,-6.872031372E-4,-1.068982761E-3,1.660631338E-3
3.701998294E0,-2.290677221E-4,-7.635590737E-5,-4.581354442E-4,5.178709599E-4
3.704412721E0,-2.290677221E-4,-6.872031372E-4,1.527118147E-4,7.402979613E-4
3.706827149E0,-2.290677221E-4,-6.872031372E-4,1.527118147E-4,7.402979613E-4
3.709241576E0,-2.290677221E-4,5.344913807E-4,1.527118147E-4,6.012270417E-4
3.711655951E0,1.679830020E-3,1.832541777E-3,-4.581354442E-4,2.527830363E-3
3.714070378E0,-2.290677221E-4,2.443389036E-3,7.635590737E-4,2.570144833E-3
3.716484805E0,4.581354442E-4,6.108472589E-4,-4.581354442E-4,8.904552455E-4
3.718899232E0,4.581354442E-4,-6.108472589E-4,1.527118147E-4,7.786805233E-4
3.721313607E0,4.581354442E-4,6.108472589E-4,-1.679830020E-3,1.845223931E-3
3.723728034E0,4.581354442E-4,1.221694518E-3,1.527118147E-4,1.313676702E-3
3.726142461E0,-2.290677221E-4,-0.000000000E0,-1.068982761E-3,1.093250276E-3
3.728556888E0,-2.290677221E-4,-0.000000000E0,7.635590737E-4,7.971790767E-4
3.730971315E0,3.817795368E-4,-0.000000000E0,-1.679830020E-3,1.722667847E-3
3.733385742E0,-1.450762269E-3,-0.000000000E0,-1.679830020E-3,2.219581055E-3
3.735800117E0,-2.290677221E-4,6.108472589E-4,1.527118147E-4,6.700203679E-4
3.738214544E0,-8.399150101E-4,6.108472589E-4,7.635590737E-4,1.289036096E-3
3.740628971E0,-2.290677221E-4,-0.000000000E0,-4.581354442E-4,5.122109981E-4
3.743043399E0,-8.399150101E-4,-0.000000000E0,1.527118147E-4,8.536850254E-4
3.745457826E0,-2.290677221E-4,-6.108472589E-4,1.527118147E-4,6.700203679E-4
3.747872201E0,-8.399150101E-4,6.108472589E-4,7.635590737E-4,1.289036096E-3
3.750286628E0,3.817795368E-4,-0.000000000E0,-1.068982761E-3,1.135112223E-3
3.752701055E0,-1.450762269E-3,6.108472589E-4,7.635590737E-4,1.749533650E-3
3.755115482E0,-2.061609412E-3,-0.000000000E0,-1.068982761E-3,2.322274211E-3
3.757529909E0,-2.290677221E-4,1.221694518E-3,7.635590737E-4,1.458777562E-3
3.759944284E0,9.926267667E-4,-6.108472589E-4,7.635590737E-4,1.393364536E-3
3.762358711E0,-2.290677221E-4,6.108472589E-4,7.635590737E-4,1.004305160E-3
3.764773138E0,3.817795368E-4,6.108472589E-4,1.527118147E-4,7.363497042E-4
3.767187565E0,-1.450762269E-3,-6.108472589E-4,-1.068982761E-3,1.902779462E-3
3.769601992E0,9.926267667E-4,-0.000000000E0,-1.679830020E-3,1.951188560E-3
3.772016419E0,-8.399150101E-4,-6.108472589E-4,-4.581354442E-4,1.135112190E-3
3.774430794E0,-8.399150101E-4,6.108472589E-4,-4.581354442E-4,1.135112190E-3
3.776845221E0,-2.290677221E-4,1.832541777E-3,-4.581354442E-4,1.902779407E-3
3.779259649E0,9.926267667E-4,6.108472589E-4,-1.679830020E-3,2.044571145E-3
3.781674076E0,3.817795368E-4,-1.832541777E-3,-1.068982761E-3,2.155618037E-3
3.784088503E0,9.926267667E-4,-6.108472589E-4,-4.581354442E-4,1.252329971E-3
3.786502878E0,3.817795368E-4,-6.108472589E-4,-4.581354442E-4,8.536849968E-4
3.788917305E0,-8.399150101E-4,1.221694518E-3,-1.679830020E-3,2.240496288E-3
3.791331732E0,-1.450762269E-3,-0.000000000E0,1.374406274E-3,1.998425322E-3
3.793746159E0,-8.399150101E-4,-0.000000000E0,-4.581354442E-4,9.567368026E-4
3.796160586E0,9.926267667E-4,-6.108472589E-4,-4.581354442E-4,1.252329971E-3
3.798574961E0,9.926267667E-4,6.108472589E-4,1.527118147E-4,1.175484228E-3
3.800989388E0,9.926267667E-4,1.832541777E-3,-1.679830020E-3,2.676816422E-3
3.803403815E0,-8.399150101E-4,-0.000000000E0,-1.068982761E-3,1.359478344E-3
3.805818242E0,3.817795368E-4,-0.000000000E0,1.527118147E-4,4.111891452E-4
3.808232669E0,-2.290677221E-4,-0.000000000E0,-4.581354442E-4,5.122109981E-4
3.810647096E0,3.817795368E-4,-0.000000000E0,-4.581354442E-4,5.963587008E-4
3.813061471E0,-2.290677221E-4,-0.000000000E0,1.374406274E-3,1.393364499E-3
3.815475899E0,3.817795368E-4,-0.000000000E0,1.527118147E-4,4.111891452E-4
3.817890326E0,3.817795368E-4,6.108472589E-4,1.527118147E-4,7.363497042E-4
3.820304753E0,-8.399150101E-4,6.108472589E-4,-1.068982761E-3,1.490407911E-3
3.822719128E0,-2.290677221E-4,-6.108472589E-4,-4.581354442E-4,7.971790767E-4
3.825133555E0,-8.399150101E-4,-6.108472589E-4,1.527118147E-4,1.049720199E-3
3.827547982E0,3.817795368E-4,1.832541777E-3,7.635590737E-4,2.021629896E-3
3.829962409E0,3.817795368E-4,1.221694518E-3,1.985253533E-3,2.362101755E-3
3.832376836E0,1.679830020E-3,6.108472589E-4,1.527118147E-4,1.793957683E-3
3.834791263E0,9.926267667E-4,1.221694518E-3,-4.581354442E-4,1.639430840E-3
3.837205638E0,3.817795368E-4,6.108472589E-4,-1.679830020E-3,1.827763356E-3
3.839620065E0,3.817795368E-4,-0.000000000E0,7.635590737E-4,8.536849968E-4
3.842034492E0,-8.399150101E-4,-6.108472589E-4,1.527118147E-4,1.049720199E-3
3.844448919E0,3.817795368E-4,6.108472589E-4,7.635590737E-4,1.049720176E-3
3.846863346E0,9.926267667E-4,-0.000000000E0,7.635590737E-4,1.252329971E-3
3.849277774E0,3.817795368E-4,1.221694518E-3,1.527118147E-4,1.289036077E-3
3.851692149E0,3.817795368E-4,6.108472589E-4,7.635590737E-4,1.049720176E-3
3.854106576E0,-2.290677221E-4,6.108472589E-4,-1.068982761E-3,1.252330044E-3
3.856521003E0,-2.290677221E-4,1.832541777E-3,-1.679830020E-3,2.496499606E-3
3.858935430E0,9.926267667E-4,1.221694518E-3,-4.581354442E-4,1.639430840E-3
3.861349857E0,3.817795368E-4,1.832541777E-3,-3.817795368E-4,1.910424192E-3
3.863764232E0,-2.290677221E-4,1.221694518E-3,-3.817795368E-4,1.300294248E-3
3.866178659E0,-2.290677221E-4,-0.000000000E0,-3.817795368E-4,4.452276227E-4
3.868593086E0,9.926267667E-4,-6.108472589E-4,-3.817795368E-4,1.226457454E-3
3.871007513E0,3.817795368E-4,-0.000000000E0,-9.926267667E-4,1.063514698E-3
3.873421940E0,9.926267667E-4,-6.872031372E-4,8.399150101E-4,1.470718625E-3
3.875836315E0,-8.399150101E-4,-6.872031372E-4,-3.817795368E-4,1.150417746E-3
