"Time (s)","Acceleration x (m/s^2)","Acceleration y (m/s^2)","Acceleration z (m/s^2)"
5.404406500E-2,1.896311939E-1,-1.537388563E-1,9.871889114E0
6.370130500E-2,1.944168359E-1,-1.896311939E-1,9.879067421E0
7.335854400E-2,1.920240223E-1,-1.609173268E-1,9.874281883E0
8.301578400E-2,2.087737769E-1,-1.537388563E-1,9.869496346E0
9.267302300E-2,2.063809484E-1,-1.848455518E-1,9.881460190E0
1.023302630E-1,2.231307179E-1,-1.944168359E-1,9.883852959E0
1.119875020E-1,2.231307179E-1,-1.657029688E-1,9.874281883E0
1.216446900E-1,2.063809484E-1,-1.513460279E-1,9.886245728E0
1.313019300E-1,2.207378894E-1,-1.633101404E-1,9.867103577E0
1.409591690E-1,2.039881349E-1,-1.776670814E-1,9.876674652E0
1.506164090E-1,1.944168359E-1,-1.752742529E-1,9.874281883E0
1.602736480E-1,2.327020019E-1,-1.465603858E-1,9.879067421E0
1.699308880E-1,2.087737769E-1,-1.657029688E-1,9.864710808E0
1.795881270E-1,2.111666054E-1,-1.609173268E-1,9.869496346E0
1.892453670E-1,2.087737769E-1,-1.824527234E-1,9.871889114E0
1.989026070E-1,2.015953064E-1,-1.728814393E-1,9.874281883E0
2.085598460E-1,1.920240223E-1,-1.609173268E-1,9.871889114E0
2.182170340E-1,2.135594189E-1,-1.728814393E-1,9.879067421E0
2.278742730E-1,2.039881349E-1,-1.561316848E-1,9.881460190E0
2.375315130E-1,1.992024779E-1,-1.657029688E-1,9.886245728E0
2.471887520E-1,1.896311939E-1,-1.824527234E-1,9.857531548E0
2.568459920E-1,2.063809484E-1,-1.393819153E-1,9.874281883E0
2.665032320E-1,2.111666054E-1,-1.513460279E-1,9.874281883E0
2.761604710E-1,2.087737769E-1,-1.513460279E-1,9.879067421E0
2.858177110E-1,2.231307179E-1,-1.704886109E-1,9.867103577E0
2.954749500E-1,2.111666054E-1,-1.896311939E-1,9.888638496E0
3.051321900E-1,2.039881349E-1,-1.872383654E-1,9.891031265E0
3.147894300E-1,2.063809484E-1,-1.848455518E-1,9.867103577E0
3.244466170E-1,2.159522474E-1,-1.561316848E-1,9.883852959E0
3.341038570E-1,1.992024779E-1,-1.800599098E-1,9.879067421E0
3.437610960E-1,1.800599098E-1,-1.657029688E-1,9.879067421E0
3.534183360E-1,1.872383654E-1,-1.680957973E-1,9.871889114E0
3.630755750E-1,1.920240223E-1,-1.704886109E-1,9.886245728E0
3.727328150E-1,1.800599098E-1,-1.657029688E-1,9.876674652E0
3.823900550E-1,1.896311939E-1,-2.063809484E-1,9.881460190E0
3.920472940E-1,1.992024779E-1,-1.872383654E-1,9.871889114E0
4.017045340E-1,2.063809484E-1,-1.776670814E-1,9.876674652E0
4.113617730E-1,2.207378894E-1,-1.752742529E-1,9.876674652E0
4.210190130E-1,2.159522474E-1,-1.657029688E-1,9.883852959E0
4.306762520E-1,2.135594189E-1,-1.776670814E-1,9.883852959E0
4.403334400E-1,2.111666054E-1,-1.752742529E-1,9.883852959E0
4.499906800E-1,2.135594189E-1,-1.657029688E-1,9.874281883E0
4.596479190E-1,1.920240223E-1,-1.752742529E-1,9.867103577E0
4.693051590E-1,2.135594189E-1,-1.752742529E-1,9.876674652E0
4.789623980E-1,2.063809484E-1,-1.680957973E-1,9.888638496E0
4.886196380E-1,1.848455518E-1,-1.657029688E-1,9.876674652E0
4.982768770E-1,2.135594189E-1,-1.585244983E-1,9.874281883E0
5.079341170E-1,2.159522474E-1,-1.776670814E-1,9.879067421E0
5.175913570E-1,2.015953064E-1,-1.585244983E-1,9.879067421E0
5.272485960E-1,2.039881349E-1,-1.585244983E-1,9.879067421E0
5.369058360E-1,2.159522474E-1,-1.800599098E-1,9.888638496E0
5.465630230E-1,2.063809484E-1,-1.609173268E-1,9.879067421E0
5.562202630E-1,2.063809484E-1,-1.752742529E-1,9.876674652E0
5.658775020E-1,2.135594189E-1,-1.776670814E-1,9.876674652E0
5.755347420E-1,1.872383654E-1,-1.728814393E-1,9.874281883E0
5.851919820E-1,2.063809484E-1,-1.489532143E-1,9.871889114E0
5.948492210E-1,2.087737769E-1,-1.728814393E-1,9.888638496E0
6.045064610E-1,2.159522474E-1,-1.561316848E-1,9.886245728E0
6.141637000E-1,2.039881349E-1,-1.776670814E-1,9.874281883E0
6.238209400E-1,2.135594189E-1,-1.633101404E-1,9.879067421E0
6.334781800E-1,2.039881349E-1,-1.752742529E-1,9.891031265E0
6.431354190E-1,2.063809484E-1,-1.465603858E-1,9.876674652E0
6.527926070E-1,2.135594189E-1,-1.585244983E-1,9.876674652E0
6.624498460E-1,1.848455518E-1,-1.704886109E-1,9.871889114E0
6.721070860E-1,1.848455518E-1,-1.657029688E-1,9.876674652E0
6.817643250E-1,1.992024779E-1,-1.561316848E-1,9.891031265E0
6.914215650E-1,1.920240223E-1,-1.561316848E-1,9.869496346E0
7.010788050E-1,2.087737769E-1,-1.537388563E-1,9.871889114E0
7.107360440E-1,2.111666054E-1,-1.489532143E-1,9.883852959E0
7.203932840E-1,2.111666054E-1,-1.824527234E-1,9.881460190E0
7.300505230E-1,2.135594189E-1,-1.704886109E-1,9.881460190E0
7.397077630E-1,2.398804724E-1,-1.561316848E-1,9.883852959E0
7.493650020E-1,2.279163599E-1,-1.704886109E-1,9.867103577E0
7.590221900E-1,1.920240223E-1,-1.609173268E-1,9.886245728E0
7.686794820E-1,2.231307179E-1,-1.609173268E-1,9.891031265E0
7.783366690E-1,2.135594189E-1,-1.585244983E-1,9.883852959E0
7.879939090E-1,2.039881349E-1,-1.561316848E-1,9.876674652E0
7.976511480E-1,1.992024779E-1,-1.752742529E-1,9.864710808E0
8.073083880E-1,1.872383654E-1,-1.513460279E-1,9.871889114E0
8.169656270E-1,2.111666054E-1,-1.633101404E-1,9.879067421E0
8.266228670E-1,1.944168359E-1,-1.561316848E-1,9.881460190E0
8.362801070E-1,1.920240223E-1,-1.489532143E-1,9.869496346E0
8.459373460E-1,1.896311939E-1,-1.489532143E-1,9.879067421E0
8.555945860E-1,1.896311939E-1,-1.800599098E-1,9.859925270E0
8.652518250E-1,2.135594189E-1,-1.489532143E-1,9.879067421E0
8.749090650E-1,2.183450609E-1,-1.561316848E-1,9.874281883E0
8.845663050E-1,1.968096644E-1,-1.776670814E-1,9.876674652E0
8.942234920E-1,2.063809484E-1,-1.728814393E-1,9.869496346E0
9.038807320E-1,2.063809484E-1,-1.704886109E-1,9.876674652E0
9.135379710E-1,1.944168359E-1,-1.561316848E-1,9.869496346E0
9.231952110E-1,2.087737769E-1,-1.872383654E-1,9.871889114E0
9.328524500E-1,2.087737769E-1,-1.657029688E-1,9.881460190E0
9.425096900E-1,2.063809484E-1,-1.680957973E-1,9.867103577E0
9.521669300E-1,1.992024779E-1,-1.585244983E-1,9.867103577E0
9.618241690E-1,1.704886109E-1,-1.848455518E-1,9.879067421E0
9.714814090E-1,2.039881349E-1,-1.657029688E-1,9.874281883E0
9.811386480E-1,1.968096644E-1,-1.537388563E-1,9.883852959E0
9.907958880E-1,2.015953064E-1,-1.752742529E-1,9.883852959E0
1.000453127E0,1.944168359E-1,-1.393819153E-1,9.886245728E0
1.010110367E0,1.944168359E-1,-1.704886109E-1,9.879067421E0
1.019767555E0,2.039881349E-1,-1.704886109E-1,9.883852959E0
1.029424794E0,2.159522474E-1,-1.465603858E-1,9.893424034E0
1.039082034E0,2.231307179E-1,-1.752742529E-1,9.883852959E0
1.048739273E0,2.087737769E-1,-1.537388563E-1,9.864710808E0
1.058396513E0,2.111666054E-1,-1.728814393E-1,9.876674652E0
1.068053752E0,1.920240223E-1,-1.824527234E-1,9.874281883E0
1.077710992E0,2.350948304E-1,-1.872383654E-1,9.883852959E0
1.087368232E0,2.207378894E-1,-1.633101404E-1,9.883852959E0
1.097025471E0,1.920240223E-1,-1.657029688E-1,9.876674652E0
1.106682711E0,1.992024779E-1,-1.441675574E-1,9.879067421E0
1.116339950E0,1.968096644E-1,-1.489532143E-1,9.879067421E0
1.125997190E0,1.920240223E-1,-1.609173268E-1,9.888638496E0
1.135654430E0,2.135594189E-1,-1.633101404E-1,9.874281883E0
1.145311617E0,2.015953064E-1,-1.800599098E-1,9.881460190E0
1.154968857E0,2.039881349E-1,-1.441675574E-1,9.864710808E0
1.164626096E0,2.087737769E-1,-1.609173268E-1,9.862318039E0
1.174283336E0,2.087737769E-1,-1.657029688E-1,9.879067421E0
1.183940575E0,2.183450609E-1,-1.800599098E-1,9.871889114E0
1.193597815E0,2.087737769E-1,-1.393819153E-1,9.867103577E0
1.203255055E0,2.087737769E-1,-1.657029688E-1,9.886245728E0
1.212912294E0,1.896311939E-1,-1.944168359E-1,9.883852959E0
1.222569534E0,2.183450609E-1,-1.776670814E-1,9.874281883E0
1.232226773E0,1.968096644E-1,-1.633101404E-1,9.893424034E0
1.241884013E0,1.944168359E-1,-1.657029688E-1,9.879067421E0
1.251541252E0,2.087737769E-1,-1.728814393E-1,9.881460190E0
1.261198492E0,2.087737769E-1,-1.752742529E-1,9.871889114E0
1.270855732E0,1.968096644E-1,-1.680957973E-1,9.869496346E0
1.280512919E0,2.063809484E-1,-1.800599098E-1,9.874281883E0
1.290170159E0,2.111666054E-1,-1.680957973E-1,9.869496346E0
1.299827398E0,1.896311939E-1,-1.657029688E-1,9.883852959E0
1.309484638E0,2.111666054E-1,-1.585244983E-1,9.871889114E0
1.319141877E0,2.039881349E-1,-1.609173268E-1,9.855138779E0
1.328799117E0,1.992024779E-1,-1.657029688E-1,9.879067421E0
1.338456357E0,2.111666054E-1,-1.465603858E-1,9.879067421E0
1.348113596E0,2.111666054E-1,-1.728814393E-1,9.886245728E0
1.357770836E0,2.279163599E-1,-1.585244983E-1,9.879067421E0
1.367428075E0,2.063809484E-1,-1.824527234E-1,9.879067421E0
1.377085315E0,2.303091735E-1,-1.561316848E-1,9.871889114E0
1.386742555E0,1.728814393E-1,-1.657029688E-1,9.883852959E0
1.396399794E0,1.992024779E-1,-1.800599098E-1,9.874281883E0
1.406057034E0,2.111666054E-1,-1.633101404E-1,9.891031265E0
1.415714221E0,1.992024779E-1,-1.752742529E-1,9.874281883E0
1.425371461E0,2.231307179E-1,-1.776670814E-1,9.881460190E0
1.435028700E0,1.968096644E-1,-1.872383654E-1,9.881460190E0
1.444685940E0,1.872383654E-1,-1.609173268E-1,9.886245728E0
1.454343180E0,1.776670814E-1,-1.680957973E-1,9.876674652E0
1.464000419E0,2.159522474E-1,-1.441675574E-1,9.867103577E0
1.473657659E0,2.087737769E-1,-1.369891018E-1,9.874281883E0
1.483314898E0,1.944168359E-1,-1.585244983E-1,9.871889114E0
1.492972138E0,2.087737769E-1,-1.776670814E-1,9.876674652E0
1.502629377E0,1.992024779E-1,-1.800599098E-1,9.886245728E0
1.512286617E0,2.039881349E-1,-1.800599098E-1,9.895816803E0
1.521943857E0,2.135594189E-1,-1.561316848E-1,9.879067421E0
1.531601096E0,1.968096644E-1,-1.537388563E-1,9.881460190E0
1.541258336E0,2.111666054E-1,-1.800599098E-1,9.874281883E0
1.550915523E0,1.920240223E-1,-1.728814393E-1,9.876674652E0
1.560572763E0,1.944168359E-1,-1.489532143E-1,9.874281883E0
1.570230002E0,2.135594189E-1,-1.585244983E-1,9.879067421E0
1.579887242E0,2.063809484E-1,-1.680957973E-1,9.874281883E0
1.589544482E0,2.063809484E-1,-1.824527234E-1,9.871889114E0
1.599201721E0,1.992024779E-1,-1.609173268E-1,9.869496346E0
1.608858961E0,1.992024779E-1,-1.561316848E-1,9.869496346E0
1.618516200E0,2.039881349E-1,-1.489532143E-1,9.883852959E0
1.628173440E0,2.063809484E-1,-1.633101404E-1,9.879067421E0
1.637830680E0,2.231307179E-1,-1.776670814E-1,9.869496346E0
1.647487919E0,1.920240223E-1,-1.633101404E-1,9.879067421E0
1.657145159E0,2.255235314E-1,-1.489532143E-1,9.888638496E0
1.666802398E0,1.848455518E-1,-1.585244983E-1,9.881460190E0
1.676459638E0,2.015953064E-1,-1.657029688E-1,9.881460190E0
1.686116877E0,1.992024779E-1,-1.752742529E-1,9.879067421E0
1.695774065E0,1.896311939E-1,-1.561316848E-1,9.862318039E0
1.705431305E0,2.207378894E-1,-1.944168359E-1,9.869496346E0
1.715088544E0,2.039881349E-1,-1.537388563E-1,9.881460190E0
1.724745784E0,2.087737769E-1,-1.752742529E-1,9.883852959E0
1.734403023E0,2.015953064E-1,-1.776670814E-1,9.871889114E0
1.744060263E0,2.063809484E-1,-1.752742529E-1,9.871889114E0
1.753717502E0,1.944168359E-1,-1.704886109E-1,9.879067421E0
1.763374742E0,1.944168359E-1,-1.465603858E-1,9.895816803E0
1.773031982E0,2.015953064E-1,-1.704886109E-1,9.874281883E0
1.782689221E0,2.183450609E-1,-1.680957973E-1,9.876674652E0
1.792346461E0,2.039881349E-1,-1.561316848E-1,9.871889114E0
1.802003700E0,1.944168359E-1,-1.585244983E-1,9.876674652E0
1.811660940E0,1.992024779E-1,-1.824527234E-1,9.881460190E0
1.821318180E0,1.992024779E-1,-1.513460279E-1,9.876674652E0
1.830975419E0,2.255235314E-1,-1.513460279E-1,9.886245728E0
1.840632659E0,1.992024779E-1,-1.561316848E-1,9.886245728E0
1.850289898E0,2.231307179E-1,-1.776670814E-1,9.874281883E0
1.859947086E0,2.135594189E-1,-1.872383654E-1,9.869496346E0
1.869604325E0,1.824527234E-1,-1.680957973E-1,9.888638496E0
1.879261565E0,2.111666054E-1,-1.680957973E-1,9.871889114E0
1.888918805E0,2.039881349E-1,-1.441675574E-1,9.893424034E0
1.898576044E0,1.992024779E-1,-1.417747438E-1,9.867103577E0
1.908233284E0,2.087737769E-1,-1.561316848E-1,9.883852959E0
1.917890523E0,1.944168359E-1,-1.609173268E-1,9.879067421E0
1.927547763E0,2.207378894E-1,-1.609173268E-1,9.879067421E0
1.937205002E0,2.159522474E-1,-1.728814393E-1,9.869496346E0
1.946862242E0,1.848455518E-1,-1.609173268E-1,9.871889114E0
1.956519482E0,2.039881349E-1,-1.728814393E-1,9.869496346E0
1.966176721E0,1.944168359E-1,-1.752742529E-1,9.891031265E0
1.975833961E0,2.303091735E-1,-1.585244983E-1,9.874281883E0
1.985491200E0,2.015953064E-1,-1.609173268E-1,9.857531548E0
1.995148388E0,2.231307179E-1,-1.776670814E-1,9.883852959E0
2.004805627E0,1.824527234E-1,-1.680957973E-1,9.881460190E0
2.014462867E0,2.015953064E-1,-1.776670814E-1,9.867103577E0
2.024120107E0,2.039881349E-1,-1.752742529E-1,9.874281883E0
2.033777346E0,1.872383654E-1,-1.968096644E-1,9.871889114E0
2.043434586E0,2.039881349E-1,-1.513460279E-1,9.876674652E0
2.053091825E0,2.183450609E-1,-1.585244983E-1,9.869496346E0
2.062749065E0,1.824527234E-1,-1.441675574E-1,9.864710808E0
2.072406305E0,1.968096644E-1,-1.609173268E-1,9.881460190E0
2.082063544E0,1.944168359E-1,-1.728814393E-1,9.874281883E0
2.091720784E0,1.968096644E-1,-1.489532143E-1,9.879067421E0
2.101378023E0,1.872383654E-1,-1.680957973E-1,9.879067421E0
2.111035263E0,1.944168359E-1,-1.728814393E-1,9.879067421E0
2.120692502E0,2.063809484E-1,-1.776670814E-1,9.869496346E0
2.130349742E0,1.944168359E-1,-1.800599098E-1,9.876674652E0
2.140006982E0,1.968096644E-1,-1.513460279E-1,9.893424034E0
2.149664221E0,2.135594189E-1,-1.609173268E-1,9.867103577E0
2.159321461E0,2.015953064E-1,-1.489532143E-1,9.888638496E0
2.168978648E0,2.255235314E-1,-1.561316848E-1,9.891031265E0
2.178635888E0,2.111666054E-1,-1.872383654E-1,9.874281883E0
2.188293127E0,2.039881349E-1,-1.417747438E-1,9.867103577E0
2.197950367E0,2.087737769E-1,-1.561316848E-1,9.869496346E0
2.207607607E0,2.111666054E-1,-1.633101404E-1,9.874281883E0
2.217264846E0,1.872383654E-1,-1.585244983E-1,9.876674652E0
2.226922086E0,1.944168359E-1,-1.561316848E-1,9.881460190E0
2.236579325E0,2.087737769E-1,-1.633101404E-1,9.876674652E0
2.246236565E0,1.752742529E-1,-1.633101404E-1,9.869496346E0
2.255893805E0,2.207378894E-1,-1.657029688E-1,9.869496346E0
2.265551044E0,1.920240223E-1,-1.633101404E-1,9.876674652E0
2.275208284E0,1.944168359E-1,-1.561316848E-1,9.867103577E0
2.284865523E0,1.848455518E-1,-1.561316848E-1,9.869496346E0
2.294522763E0,1.992024779E-1,-1.680957973E-1,9.886245728E0
2.304180002E0,2.135594189E-1,-1.728814393E-1,9.876674652E0
2.313837242E0,1.896311939E-1,-1.848455518E-1,9.876674652E0
2.323494482E0,2.087737769E-1,-1.537388563E-1,9.879067421E0
2.333151721E0,2.063809484E-1,-1.776670814E-1,9.888638496E0
2.342808961E0,1.776670814E-1,-1.872383654E-1,9.867103577E0
2.352466148E0,2.087737769E-1,-1.944168359E-1,9.874281883E0
2.362123388E0,2.135594189E-1,-1.848455518E-1,9.881460190E0
2.371780627E0,2.087737769E-1,-1.585244983E-1,9.871889114E0
2.381437867E0,2.015953064E-1,-1.800599098E-1,9.886245728E0
2.391095107E0,2.063809484E-1,-1.561316848E-1,9.869496346E0
2.400752346E0,2.015953064E-1,-1.704886109E-1,9.876674652E0
2.410409586E0,2.015953064E-1,-1.776670814E-1,9.881460190E0
2.420066825E0,2.039881349E-1,-1.417747438E-1,9.881460190E0
2.429724065E0,1.992024779E-1,-1.680957973E-1,9.869496346E0
2.439381305E0,2.087737769E-1,-1.633101404E-1,9.881460190E0
2.449038544E0,2.063809484E-1,-1.657029688E-1,9.876674652E0
2.458695784E0,2.087737769E-1,-1.585244983E-1,9.874281883E0
2.468353023E0,1.944168359E-1,-1.657029688E-1,9.862318039E0
2.478010263E0,2.015953064E-1,-1.800599098E-1,9.864710808E0
2.487667502E0,1.968096644E-1,-1.657029688E-1,9.869496346E0
2.497324742E0,2.063809484E-1,-1.537388563E-1,9.862318039E0
2.506981982E0,1.992024779E-1,-1.680957973E-1,9.883852959E0
2.516639169E0,1.944168359E-1,-1.800599098E-1,9.876674652E0
2.526296409E0,2.207378894E-1,-1.609173268E-1,9.879067421E0
2.535953648E0,1.848455518E-1,-1.585244983E-1,9.886245728E0
2.545610888E0,1.992024779E-1,-1.800599098E-1,9.876674652E0
2.555268127E0,2.135594189E-1,-1.657029688E-1,9.879067421E0
2.564925367E0,2.039881349E-1,-1.489532143E-1,9.874281883E0
2.574582607E0,1.872383654E-1,-1.298106313E-1,9.879067421E0
2.584239846E0,2.063809484E-1,-1.537388563E-1,9.886245728E0
2.593897086E0,2.255235314E-1,-1.824527234E-1,9.879067421E0
2.603554325E0,2.159522474E-1,-1.322034448E-1,9.879067421E0
2.613211565E0,1.920240223E-1,-1.680957973E-1,9.881460190E0
2.622868805E0,2.207378894E-1,-1.776670814E-1,9.886245728E0
2.632526044E0,2.159522474E-1,-1.896311939E-1,9.864710808E0
2.642183284E0,1.968096644E-1,-1.513460279E-1,9.876674652E0
2.651840523E0,1.848455518E-1,-1.704886109E-1,9.886245728E0
2.661497763E0,2.183450609E-1,-1.680957973E-1,9.883852959E0
2.671155002E0,1.920240223E-1,-1.633101404E-1,9.891031265E0
2.680812242E0,2.087737769E-1,-1.585244983E-1,9.883852959E0
2.690469482E0,1.920240223E-1,-1.704886109E-1,9.886245728E0
2.700126721E0,1.944168359E-1,-1.633101404E-1,9.881460190E0
2.709783909E0,2.111666054E-1,-1.417747438E-1,9.876674652E0
2.719441148E0,2.039881349E-1,-1.824527234E-1,9.869496346E0
2.729098388E0,2.039881349E-1,-1.609173268E-1,9.874281883E0
2.738755627E0,2.063809484E-1,-1.728814393E-1,9.879067421E0
2.748412867E0,2.255235314E-1,-1.896311939E-1,9.881460190E0
2.758070107E0,2.183450609E-1,-1.824527234E-1,9.879067421E0
2.767727346E0,2.063809484E-1,-1.465603858E-1,9.874281883E0
2.777384586E0,2.087737769E-1,-1.704886109E-1,9.876674652E0
2.787041825E0,1.944168359E-1,-1.561316848E-1,9.871889114E0
2.796699065E0,2.135594189E-1,-1.728814393E-1,9.879067421E0
2.806356305E0,2.183450609E-1,-1.704886109E-1,9.881460190E0
2.816013544E0,1.944168359E-1,-1.513460279E-1,9.893424034E0
2.825670784E0,1.944168359E-1,-1.704886109E-1,9.879067421E0
2.835328023E0,2.087737769E-1,-1.513460279E-1,9.869496346E0
2.844985263E0,2.159522474E-1,-1.633101404E-1,9.871889114E0
2.854642502E0,1.968096644E-1,-1.752742529E-1,9.864710808E0
2.864299742E0,2.111666054E-1,-1.728814393E-1,9.862318039E0
2.873956982E0,1.896311939E-1,-1.513460279E-1,9.881460190E0
2.883614221E0,1.824527234E-1,-1.752742529E-1,9.883852959E0
2.893271461E0,1.824527234E-1,-1.633101404E-1,9.874281883E0
2.902928700E0,1.968096644E-1,-1.752742529E-1,9.869496346E0
2.912585940E0,2.063809484E-1,-1.872383654E-1,9.883852959E0
2.922243180E0,2.135594189E-1,-1.704886109E-1,9.879067421E0
2.931900419E0,1.992024779E-1,-1.465603858E-1,9.869496346E0
2.941557607E0,2.015953064E-1,-1.728814393E-1,9.862318039E0
2.951214846E0,1.776670814E-1,-1.752742529E-1,9.876674652E0
2.960872086E0,2.039881349E-1,-1.513460279E-1,9.886245728E0
2.970529325E0,1.848455518E-1,-1.585244983E-1,9.881460190E0
2.980186565E0,1.944168359E-1,-1.537388563E-1,9.857531548E0
2.989843805E0,2.039881349E-1,-1.704886109E-1,9.886245728E0
2.999501044E0,1.920240223E-1,-1.728814393E-1,9.876674652E0
3.009158284E0,2.015953064E-1,-1.489532143E-1,9.883852959E0
3.018815523E0,1.920240223E-1,-1.752742529E-1,9.876674652E0
3.028472763E0,2.063809484E-1,-1.633101404E-1,9.876674652E0
3.038130002E0,2.039881349E-1,-1.393819153E-1,9.874281883E0
3.047787242E0,2.135594189E-1,-1.704886109E-1,9.888638496E0
3.057444482E0,1.920240223E-1,-1.369891018E-1,9.879067421E0
3.067101721E0,2.063809484E-1,-1.489532143E-1,9.874281883E0
3.076758961E0,1.896311939E-1,-1.657029688E-1,9.883852959E0
3.086416200E0,2.039881349E-1,-1.704886109E-1,9.881460190E0
3.096073440E0,2.063809484E-1,-1.657029688E-1,9.881460190E0
3.105730680E0,2.015953064E-1,-1.609173268E-1,9.881460190E0
3.115387919E0,2.015953064E-1,-1.561316848E-1,9.869496346E0
3.125045159E0,2.159522474E-1,-1.680957973E-1,9.879067421E0
3.134702346E0,2.183450609E-1,-1.633101404E-1,9.881460190E0
3.144359586E0,1.968096644E-1,-1.585244983E-1,9.874281883E0
3.154016825E0,2.039881349E-1,-1.561316848E-1,9.871889114E0
3.163674065E0,1.824527234E-1,-1.537388563E-1,9.886245728E0
3.173331305E0,2.087737769E-1,-1.585244983E-1,9.871889114E0
3.182988544E0,2.159522474E-1,-1.561316848E-1,9.867103577E0
3.192645784E0,1.968096644E-1,-1.776670814E-1,9.869496346E0
3.202303023E0,2.039881349E-1,-1.776670814E-1,9.864710808E0
3.211960263E0,2.015953064E-1,-1.537388563E-1,9.898209572E0
3.221617502E0,2.015953064E-1,-1.585244983E-1,9.879067421E0
3.231274742E0,1.992024779E-1,-1.441675574E-1,9.883852959E0
3.240931982E0,2.063809484E-1,-1.345962733E-1,9.869496346E0
3.250589221E0,1.944168359E-1,-1.752742529E-1,9.867103577E0
3.260246461E0,2.039881349E-1,-1.513460279E-1,9.869496346E0
3.269903700E0,1.992024779E-1,-1.633101404E-1,9.867103577E0
3.279560940E0,1.944168359E-1,-1.633101404E-1,9.874281883E0
3.289218180E0,1.968096644E-1,-1.465603858E-1,9.876674652E0
3.298875419E0,1.800599098E-1,-1.728814393E-1,9.900602341E0
3.308532659E0,2.015953064E-1,-1.776670814E-1,9.879067421E0
3.318189898E0,1.896311939E-1,-1.561316848E-1,9.871889114E0
3.327847138E0,1.992024779E-1,-1.728814393E-1,9.888638496E0
3.337504377E0,1.920240223E-1,-1.824527234E-1,9.874281883E0
3.347161617E0,2.039881349E-1,-1.704886109E-1,9.869496346E0
3.356818857E0,2.255235314E-1,-1.537388563E-1,9.869496346E0
3.366476044E0,2.183450609E-1,-1.489532143E-1,9.881460190E0
3.376133336E0,1.776670814E-1,-1.609173268E-1,9.867103577E0
3.385790523E0,1.992024779E-1,-1.585244983E-1,9.871889114E0
3.395447763E0,1.896311939E-1,-1.561316848E-1,9.869496346E0
3.405105002E0,1.968096644E-1,-1.585244983E-1,9.883852959E0
3.414762242E0,1.800599098E-1,-1.537388563E-1,9.879067421E0
3.424419482E0,2.015953064E-1,-1.680957973E-1,9.879067421E0
3.434076721E0,2.063809484E-1,-1.609173268E-1,9.883852959E0
3.443733961E0,1.920240223E-1,-1.633101404E-1,9.879067421E0
3.453391200E0,2.015953064E-1,-1.872383654E-1,9.883852959E0
3.463048440E0,2.135594189E-1,-1.752742529E-1,9.864710808E0
3.472705680E0,2.374876440E-1,-1.609173268E-1,9.886245728E0
3.482362919E0,2.039881349E-1,-1.848455518E-1,9.879067421E0
3.492020159E0,2.039881349E-1,-1.872383654E-1,9.886245728E0
3.501677398E0,2.183450609E-1,-1.609173268E-1,9.874281883E0
3.511334638E0,2.015953064E-1,-1.633101404E-1,9.886245728E0
3.520991877E0,2.063809484E-1,-1.441675574E-1,9.883852959E0
3.530649117E0,2.087737769E-1,-1.680957973E-1,9.874281883E0
3.540306357E0,1.992024779E-1,-1.728814393E-1,9.876674652E0
3.549963596E0,2.015953064E-1,-1.728814393E-1,9.867103577E0
3.559620836E0,2.039881349E-1,-1.752742529E-1,9.874281883E0
3.569278075E0,1.992024779E-1,-1.633101404E-1,9.883852959E0
3.578935315E0,2.111666054E-1,-1.680957973E-1,9.879067421E0
3.588592555E0,2.063809484E-1,-1.704886109E-1,9.888638496E0
3.598249794E0,2.063809484E-1,-1.585244983E-1,9.881460190E0
3.607907034E0,1.992024779E-1,-1.704886109E-1,9.879067421E0
3.617564273E0,2.111666054E-1,-1.633101404E-1,9.881460190E0
3.627221513E0,1.896311939E-1,-1.680957973E-1,9.886245728E0
3.636878752E0,2.063809484E-1,-1.704886109E-1,9.867103577E0
3.646535940E0,2.015953064E-1,-1.776670814E-1,9.869496346E0
3.656193232E0,2.015953064E-1,-1.728814393E-1,9.881460190E0
3.665850419E0,1.944168359E-1,-1.657029688E-1,9.891031265E0
3.675507659E0,2.111666054E-1,-1.752742529E-1,9.864710808E0
3.685164898E0,2.015953064E-1,-1.657029688E-1,9.881460190E0
3.694822138E0,2.039881349E-1,-1.561316848E-1,9.876674652E0
3.704479377E0,1.920240223E-1,-1.489532143E-1,9.864710808E0
3.714136617E0,1.968096644E-1,-1.633101404E-1,9.874281883E0
3.723793857E0,1.968096644E-1,-1.776670814E-1,9.881460190E0
3.733451096E0,1.872383654E-1,-1.680957973E-1,9.869496346E0
3.743108336E0,2.015953064E-1,-1.680957973E-1,9.869496346E0
3.752765575E0,1.752742529E-1,-1.561316848E-1,9.879067421E0
3.762422815E0,1.992024779E-1,-1.776670814E-1,9.881460190E0
3.772080055E0,2.015953064E-1,-1.728814393E-1,9.881460190E0
3.781737294E0,1.896311939E-1,-1.776670814E-1,9.871889114E0
3.791394534E0,1.920240223E-1,-1.728814393E-1,9.874281883E0
3.801051773E0,2.111666054E-1,-1.657029688E-1,9.876674652E0
3.810709013E0,1.944168359E-1,-1.657029688E-1,9.881460190E0
3.820366252E0,2.015953064E-1,-1.920240223E-1,9.881460190E0
3.830023492E0,2.039881349E-1,-1.609173268E-1,9.874281883E0
3.839680732E0,1.920240223E-1,-1.848455518E-1,9.891031265E0
3.849337971E0,2.039881349E-1,-1.537388563E-1,9.869496346E0
3.858995211E0,2.015953064E-1,-1.704886109E-1,9.876674652E0
3.868652450E0,2.087737769E-1,-1.824527234E-1,9.881460190E0
3.878309690E0,2.087737769E-1,-1.513460279E-1,9.883852959E0
3.887966930E0,1.800599098E-1,-1.657029688E-1,9.867103577E0
3.897624169E0,1.752742529E-1,-1.513460279E-1,9.893424034E0
3.907281409E0,1.896311939E-1,-1.441675574E-1,9.888638496E0
3.916938648E0,2.063809484E-1,-1.752742529E-1,9.888638496E0
3.926595888E0,2.135594189E-1,-1.537388563E-1,9.879067421E0
3.936253127E0,1.920240223E-1,-1.609173268E-1,9.881460190E0
3.945910367E0,2.015953064E-1,-1.728814393E-1,9.883852959E0
3.955567607E0,1.872383654E-1,-1.728814393E-1,9.871889114E0
3.965224846E0,1.944168359E-1,-1.824527234E-1,9.871889114E0
3.974882034E0,1.992024779E-1,-1.776670814E-1,9.874281883E0
3.984539273E0,1.872383654E-1,-1.872383654E-1,9.876674652E0
3.994196513E0,2.111666054E-1,-1.393819153E-1,9.874281883E0
4.003853752E0,1.992024779E-1,-1.609173268E-1,9.883852959E0
4.013510992E0,1.848455518E-1,-1.585244983E-1,9.876674652E0
4.023168232E0,1.776670814E-1,-1.633101404E-1,9.869496346E0
4.032825471E0,2.183450609E-1,-1.752742529E-1,9.867103577E0
4.042482711E0,2.063809484E-1,-1.585244983E-1,9.876674652E0
4.052139950E0,1.920240223E-1,-1.633101404E-1,9.883852959E0
4.061797190E0,2.015953064E-1,-1.704886109E-1,9.879067421E0
4.071454430E0,1.968096644E-1,-1.872383654E-1,9.874281883E0
4.081111669E0,1.800599098E-1,-1.274178028E-1,9.869496346E0
4.090768909E0,1.920240223E-1,-1.776670814E-1,9.900602341E0
4.100426148E0,1.848455518E-1,-1.728814393E-1,9.879067421E0
4.110083388E0,2.087737769E-1,-1.872383654E-1,9.881460190E0
4.119740627E0,2.279163599E-1,-1.585244983E-1,9.883852959E0
4.129397867E0,1.992024779E-1,-1.513460279E-1,9.881460190E0
4.139055107E0,2.087737769E-1,-1.848455518E-1,9.869496346E0
4.148712346E0,2.039881349E-1,-1.896311939E-1,9.871889114E0
4.158369586E0,1.968096644E-1,-1.704886109E-1,9.883852959E0
4.168026825E0,1.896311939E-1,-1.800599098E-1,9.879067421E0
4.177684065E0,2.111666054E-1,-1.848455518E-1,9.871889114E0
4.187341305E0,2.015953064E-1,-1.776670814E-1,9.876674652E0
4.196998544E0,1.896311939E-1,-1.609173268E-1,9.879067421E0
4.206655784E0,1.872383654E-1,-1.609173268E-1,9.871889114E0
4.216313023E0,1.752742529E-1,-1.537388563E-1,9.876674652E0
4.225970263E0,1.920240223E-1,-1.680957973E-1,9.867103577E0
4.235627502E0,1.896311939E-1,-1.728814393E-1,9.881460190E0
4.245284742E0,1.920240223E-1,-1.585244983E-1,9.871889114E0
4.254941982E0,2.111666054E-1,-1.489532143E-1,9.876674652E0
4.264599221E0,1.968096644E-1,-1.704886109E-1,9.876674652E0
4.274256461E0,1.585244983E-1,-1.417747438E-1,9.874281883E0
4.283913700E0,1.920240223E-1,-1.561316848E-1,9.883852959E0
4.293570940E0,1.848455518E-1,-1.680957973E-1,9.886245728E0
4.303228180E0,1.920240223E-1,-1.848455518E-1,9.879067421E0
4.312885419E0,2.039881349E-1,-1.633101404E-1,9.869496346E0
4.322542659E0,1.800599098E-1,-1.585244983E-1,9.883852959E0
4.332199846E0,1.968096644E-1,-1.561316848E-1,9.869496346E0
4.341857138E0,1.824527234E-1,-1.776670814E-1,9.886245728E0
4.351514325E0,2.063809484E-1,-1.680957973E-1,9.871889114E0
4.361171617E0,2.279163599E-1,-1.680957973E-1,9.871889114E0
4.370828857E0,1.920240223E-1,-1.728814393E-1,9.867103577E0
4.380486044E0,2.135594189E-1,-1.657029688E-1,9.874281883E0
4.390143284E0,2.039881349E-1,-1.633101404E-1,9.859925270E0
4.399800523E0,1.920240223E-1,-1.824527234E-1,9.879067421E0
4.409457763E0,2.111666054E-1,-1.489532143E-1,9.886245728E0
4.419115002E0,1.992024779E-1,-1.513460279E-1,9.883852959E0
4.428772242E0,2.207378894E-1,-1.609173268E-1,9.879067421E0
4.438429482E0,1.752742529E-1,-1.441675574E-1,9.871889114E0
4.448086721E0,1.968096644E-1,-1.728814393E-1,9.857531548E0
4.457743961E0,1.920240223E-1,-1.561316848E-1,9.869496346E0
4.467401200E0,2.087737769E-1,-1.657029688E-1,9.864710808E0
4.477058440E0,2.183450609E-1,-1.704886109E-1,9.893424034E0
4.486715680E0,1.800599098E-1,-1.704886109E-1,9.881460190E0
4.496372919E0,1.896311939E-1,-1.585244983E-1,9.879067421E0
4.506030159E0,1.992024779E-1,-1.585244983E-1,9.871889114E0
4.515687398E0,2.087737769E-1,-1.704886109E-1,9.893424034E0
4.525344638E0,1.968096644E-1,-1.561316848E-1,9.879067421E0
4.535001877E0,1.896311939E-1,-1.489532143E-1,9.883852959E0
4.544659117E0,1.968096644E-1,-1.728814393E-1,9.879067421E0
4.554316357E0,2.039881349E-1,-1.728814393E-1,9.867103577E0
4.563973596E0,1.800599098E-1,-1.609173268E-1,9.867103577E0
4.573630836E0,1.944168359E-1,-1.489532143E-1,9.883852959E0
4.583288075E0,2.015953064E-1,-1.585244983E-1,9.876674652E0
4.592945315E0,1.992024779E-1,-1.585244983E-1,9.864710808E0
4.602602555E0,2.039881349E-1,-1.537388563E-1,9.864710808E0
4.612259794E0,1.848455518E-1,-1.776670814E-1,9.874281883E0
4.621917034E0,1.944168359E-1,-1.609173268E-1,9.871889114E0
4.631574273E0,2.039881349E-1,-1.872383654E-1,9.864710808E0
4.641231513E0,2.015953064E-1,-1.609173268E-1,9.876674652E0
4.650888752E0,1.776670814E-1,-1.800599098E-1,9.876674652E0
4.660545992E0,1.824527234E-1,-1.992024779E-1,9.867103577E0
4.670203232E0,2.039881349E-1,-1.561316848E-1,9.871889114E0
4.679860471E0,1.968096644E-1,-1.609173268E-1,9.869496346E0
4.689517711E0,1.992024779E-1,-1.752742529E-1,9.867103577E0
4.699174950E0,1.824527234E-1,-1.609173268E-1,9.862318039E0
4.708832190E0,1.920240223E-1,-1.704886109E-1,9.881460190E0
4.718489430E0,1.992024779E-1,-1.800599098E-1,9.876674652E0
4.728146669E0,2.063809484E-1,-1.369891018E-1,9.891031265E0
4.737803909E0,2.087737769E-1,-1.633101404E-1,9.895816803E0
4.747461148E0,2.303091735E-1,-1.824527234E-1,9.871889114E0
4.757118388E0,2.015953064E-1,-1.489532143E-1,9.871889114E0
4.766775627E0,2.111666054E-1,-1.657029688E-1,9.876674652E0
4.776432867E0,2.135594189E-1,-1.537388563E-1,9.881460190E0
4.786090107E0,1.800599098E-1,-1.465603858E-1,9.881460190E0
4.795747346E0,1.920240223E-1,-1.752742529E-1,9.874281883E0
4.805404586E0,2.063809484E-1,-1.728814393E-1,9.871889114E0
4.815061825E0,1.896311939E-1,-1.513460279E-1,9.874281883E0
4.824719065E0,1.992024779E-1,-1.537388563E-1,9.864710808E0
4.834376305E0,1.968096644E-1,-1.704886109E-1,9.881460190E0
4.844033544E0,1.872383654E-1,-1.585244983E-1,9.879067421E0
4.853690784E0,1.992024779E-1,-1.369891018E-1,9.869496346E0
4.863348023E0,1.920240223E-1,-1.609173268E-1,9.869496346E0
4.873005263E0,2.039881349E-1,-1.609173268E-1,9.869496346E0
4.882662502E0,2.087737769E-1,-1.393819153E-1,9.879067421E0
4.892319742E0,1.944168359E-1,-1.441675574E-1,9.867103577E0
4.901976982E0,1.752742529E-1,-1.609173268E-1,9.888638496E0
4.911634221E0,1.920240223E-1,-1.680957973E-1,9.886245728E0
4.921291461E0,2.015953064E-1,-1.824527234E-1,9.883852959E0
4.930948700E0,2.063809484E-1,-1.680957973E-1,9.874281883E0
4.940605940E0,1.968096644E-1,-1.489532143E-1,9.881460190E0
4.950263180E0,2.111666054E-1,-1.633101404E-1,9.864710808E0
4.959920419E0,1.680957973E-1,-1.537388563E-1,9.874281883E0
4.969577659E0,2.087737769E-1,-1.752742529E-1,9.902996063E0
4.979234898E0,1.872383654E-1,-1.704886109E-1,9.869496346E0
4.988892086E0,2.063809484E-1,-1.896311939E-1,9.874281883E0
4.998549325E0,1.944168359E-1,-1.800599098E-1,9.886245728E0
5.008206565E0,1.776670814E-1,-1.680957973E-1,9.876674652E0
5.017863805E0,2.039881349E-1,-1.680957973E-1,9.876674652E0
5.027521044E0,1.752742529E-1,-1.680957973E-1,9.864710808E0
5.037178284E0,1.992024779E-1,-1.441675574E-1,9.879067421E0
5.046835523E0,1.872383654E-1,-1.465603858E-1,9.876674652E0
5.056492763E0,2.159522474E-1,-1.704886109E-1,9.871889114E0
5.066150002E0,1.824527234E-1,-1.657029688E-1,9.881460190E0
5.075807242E0,1.968096644E-1,-1.752742529E-1,9.855138779E0
5.085464482E0,1.992024779E-1,-1.704886109E-1,9.864710808E0
5.095121721E0,1.992024779E-1,-1.537388563E-1,9.874281883E0
5.104778961E0,2.015953064E-1,-1.680957973E-1,9.874281883E0
5.114436200E0,2.039881349E-1,-1.633101404E-1,9.869496346E0
5.124093440E0,1.968096644E-1,-1.752742529E-1,9.869496346E0
5.133750680E0,2.183450609E-1,-1.704886109E-1,9.871889114E0
5.143407919E0,2.135594189E-1,-1.561316848E-1,9.879067421E0
5.153065159E0,2.015953064E-1,-1.657029688E-1,9.874281883E0
5.162722398E0,2.015953064E-1,-1.561316848E-1,9.874281883E0
5.172379638E0,1.968096644E-1,-1.704886109E-1,9.891031265E0
5.182036877E0,2.207378894E-1,-1.441675574E-1,9.883852959E0
5.191694117E0,1.944168359E-1,-1.513460279E-1,9.883852959E0
5.201351357E0,1.872383654E-1,-1.609173268E-1,9.869496346E0
5.211008596E0,2.039881349E-1,-1.752742529E-1,9.874281883E0
5.220665836E0,1.824527234E-1,-1.585244983E-1,9.869496346E0
5.230323075E0,2.279163599E-1,-1.633101404E-1,9.883852959E0
5.239980315E0,2.039881349E-1,-1.537388563E-1,9.876674652E0
5.249637555E0,1.992024779E-1,-1.345962733E-1,9.883852959E0
5.259294794E0,2.087737769E-1,-1.633101404E-1,9.869496346E0
5.268952034E0,2.135594189E-1,-1.752742529E-1,9.879067421E0
5.278609273E0,1.896311939E-1,-1.561316848E-1,9.874281883E0
5.288266513E0,2.015953064E-1,-1.465603858E-1,9.867103577E0
5.297923752E0,2.063809484E-1,-1.657029688E-1,9.864710808E0
5.307580992E0,2.111666054E-1,-1.441675574E-1,9.888638496E0
5.317238232E0,2.159522474E-1,-1.752742529E-1,9.881460190E0
5.326895471E0,1.896311939E-1,-1.800599098E-1,9.888638496E0
5.336552711E0,2.015953064E-1,-1.776670814E-1,9.874281883E0
5.346209950E0,1.848455518E-1,-1.465603858E-1,9.876674652E0
5.355867190E0,1.896311939E-1,-1.704886109E-1,9.881460190E0
5.365524430E0,2.015953064E-1,-1.680957973E-1,9.876674652E0
5.375181669E0,2.087737769E-1,-1.776670814E-1,9.888638496E0
5.384838909E0,2.135594189E-1,-1.680957973E-1,9.862318039E0
5.394496148E0,2.015953064E-1,-1.609173268E-1,9.883852959E0
5.404153388E0,1.848455518E-1,-1.728814393E-1,9.886245728E0
5.413810627E0,1.848455518E-1,-1.585244983E-1,9.883852959E0
5.423467867E0,1.824527234E-1,-1.633101404E-1,9.871889114E0
5.433125107E0,1.896311939E-1,-1.585244983E-1,9.893424034E0
5.442782346E0,2.039881349E-1,-1.537388563E-1,9.879067421E0
5.452439586E0,1.992024779E-1,-1.585244983E-1,9.891031265E0
5.462096825E0,1.944168359E-1,-1.585244983E-1,9.888638496E0
5.471754065E0,2.039881349E-1,-1.752742529E-1,9.864710808E0
5.481411305E0,1.920240223E-1,-1.561316848E-1,9.862318039E0
5.491068544E0,2.039881349E-1,-1.585244983E-1,9.879067421E0
5.500725784E0,2.015953064E-1,-1.633101404E-1,9.857531548E0
5.510383023E0,2.135594189E-1,-1.513460279E-1,9.886245728E0
5.520040263E0,2.135594189E-1,-1.728814393E-1,9.862318039E0
5.529697502E0,1.872383654E-1,-1.704886109E-1,9.891031265E0
5.539354742E0,1.800599098E-1,-1.633101404E-1,9.886245728E0
5.549011982E0,1.824527234E-1,-1.657029688E-1,9.879067421E0
5.558669221E0,1.848455518E-1,-1.633101404E-1,9.883852959E0
5.568326461E0,1.872383654E-1,-1.657029688E-1,9.869496346E0
5.577983700E0,2.063809484E-1,-1.633101404E-1,9.881460190E0
5.587640940E0,1.944168359E-1,-1.393819153E-1,9.876674652E0
5.597298180E0,1.824527234E-1,-1.441675574E-1,9.879067421E0
5.606955419E0,2.087737769E-1,-1.513460279E-1,9.879067421E0
5.616612659E0,1.848455518E-1,-1.561316848E-1,9.883852959E0
5.626269898E0,2.039881349E-1,-1.513460279E-1,9.864710808E0
5.635927138E0,1.920240223E-1,-1.657029688E-1,9.871889114E0
5.645584377E0,1.944168359E-1,-1.489532143E-1,9.874281883E0
5.655241617E0,1.896311939E-1,-1.513460279E-1,9.871889114E0
5.664898857E0,1.992024779E-1,-1.752742529E-1,9.864710808E0
5.674556096E0,2.039881349E-1,-1.680957973E-1,9.871889114E0
5.684213336E0,1.704886109E-1,-1.633101404E-1,9.886245728E0
5.693870575E0,1.968096644E-1,-1.704886109E-1,9.888638496E0
5.703527815E0,2.063809484E-1,-1.704886109E-1,9.871889114E0
5.713185055E0,1.872383654E-1,-1.680957973E-1,9.883852959E0
5.722842294E0,1.968096644E-1,-1.776670814E-1,9.886245728E0
5.732499534E0,1.848455518E-1,-1.393819153E-1,9.871889114E0
5.742156773E0,2.135594189E-1,-1.680957973E-1,9.888638496E0
5.751814013E0,2.039881349E-1,-1.657029688E-1,9.886245728E0
5.761471252E0,1.920240223E-1,-1.657029688E-1,9.876674652E0
5.771128492E0,1.872383654E-1,-1.489532143E-1,9.888638496E0
5.780785732E0,1.800599098E-1,-1.752742529E-1,9.876674652E0
5.790442971E0,1.920240223E-1,-1.728814393E-1,9.879067421E0
5.800100211E0,1.776670814E-1,-1.513460279E-1,9.874281883E0
5.809757450E0,1.872383654E-1,-1.657029688E-1,9.883852959E0
5.819414690E0,1.896311939E-1,-1.728814393E-1,9.867103577E0
5.829071930E0,1.896311939E-1,-1.752742529E-1,9.876674652E0
5.838729169E0,1.920240223E-1,-1.728814393E-1,9.869496346E0
5.848386409E0,2.039881349E-1,-1.537388563E-1,9.876674652E0
5.858043648E0,1.944168359E-1,-1.680957973E-1,9.898209572E0
5.867700888E0,1.776670814E-1,-1.609173268E-1,9.874281883E0
5.877358127E0,2.087737769E-1,-1.680957973E-1,9.883852959E0
5.887015367E0,2.015953064E-1,-1.800599098E-1,9.874281883E0
5.896672607E0,1.920240223E-1,-1.776670814E-1,9.886245728E0
5.906329846E0,1.992024779E-1,-1.513460279E-1,9.883852959E0
5.915987086E0,2.087737769E-1,-1.585244983E-1,9.876674652E0
5.925644325E0,2.111666054E-1,-1.561316848E-1,9.874281883E0
5.935301565E0,1.896311939E-1,-1.776670814E-1,9.876674652E0
5.944958805E0,1.752742529E-1,-1.657029688E-1,9.862318039E0
5.954616044E0,1.800599098E-1,-1.513460279E-1,9.888638496E0
5.964273284E0,1.896311939E-1,-1.680957973E-1,9.871889114E0
5.973930523E0,1.944168359E-1,-1.704886109E-1,9.881460190E0
5.983587763E0,1.920240223E-1,-1.944168359E-1,9.867103577E0
5.993245002E0,1.800599098E-1,-1.776670814E-1,9.881460190E0
6.002902242E0,1.896311939E-1,-1.585244983E-1,9.883852959E0
6.012559482E0,1.848455518E-1,-1.417747438E-1,9.879067421E0
6.022216721E0,1.824527234E-1,-1.609173268E-1,9.883852959E0
6.031874013E0,1.848455518E-1,-1.800599098E-1,9.867103577E0
6.041531200E0,1.848455518E-1,-1.537388563E-1,9.879067421E0
6.051188492E0,1.920240223E-1,-1.322034448E-1,9.876674652E0
6.060845680E0,2.039881349E-1,-1.704886109E-1,9.879067421E0
6.070502919E0,1.944168359E-1,-1.944168359E-1,9.891031265E0
6.080160211E0,1.800599098E-1,-1.657029688E-1,9.876674652E0
6.089817450E0,2.015953064E-1,-1.680957973E-1,9.876674652E0
6.099474690E0,1.896311939E-1,-1.513460279E-1,9.876674652E0
6.109131930E0,2.087737769E-1,-1.513460279E-1,9.888638496E0
6.118789169E0,1.848455518E-1,-1.609173268E-1,9.881460190E0
6.128446409E0,1.992024779E-1,-1.800599098E-1,9.881460190E0
6.138103648E0,1.848455518E-1,-1.537388563E-1,9.879067421E0
6.147760888E0,2.039881349E-1,-1.633101404E-1,9.874281883E0
6.157418127E0,1.968096644E-1,-1.728814393E-1,9.867103577E0
6.167075367E0,1.872383654E-1,-1.704886109E-1,9.869496346E0
6.176732607E0,1.920240223E-1,-1.633101404E-1,9.867103577E0
6.186389846E0,1.728814393E-1,-1.633101404E-1,9.886245728E0
6.196047086E0,2.063809484E-1,-1.537388563E-1,9.867103577E0
6.205704325E0,2.087737769E-1,-1.680957973E-1,9.867103577E0
6.215361565E0,1.872383654E-1,-1.345962733E-1,9.876674652E0
6.225018805E0,1.944168359E-1,-1.465603858E-1,9.871889114E0
6.234676044E0,2.207378894E-1,-1.585244983E-1,9.871889114E0
6.244333284E0,1.776670814E-1,-1.704886109E-1,9.879067421E0
6.253990523E0,1.992024779E-1,-1.489532143E-1,9.874281883E0
6.263647763E0,1.848455518E-1,-1.728814393E-1,9.881460190E0
6.273305002E0,1.968096644E-1,-1.513460279E-1,9.867103577E0
6.282962242E0,2.015953064E-1,-1.585244983E-1,9.864710808E0
6.292619482E0,2.039881349E-1,-1.489532143E-1,9.871889114E0
6.302276721E0,1.920240223E-1,-1.896311939E-1,9.881460190E0
6.311933961E0,2.087737769E-1,-1.680957973E-1,9.874281883E0
6.321591200E0,1.944168359E-1,-1.657029688E-1,9.879067421E0
6.331248440E0,1.896311939E-1,-1.824527234E-1,9.881460190E0
6.340905680E0,1.944168359E-1,-1.561316848E-1,9.881460190E0
6.350562919E0,1.896311939E-1,-1.561316848E-1,9.888638496E0
6.360220159E0,2.039881349E-1,-1.728814393E-1,9.859925270E0
6.369877398E0,1.968096644E-1,-1.704886109E-1,9.876674652E0
6.379534638E0,1.944168359E-1,-1.585244983E-1,9.879067421E0
6.389191877E0,1.920240223E-1,-1.513460279E-1,9.876674652E0
6.398849117E0,2.159522474E-1,-1.585244983E-1,9.864710808E0
6.408506357E0,1.824527234E-1,-1.752742529E-1,9.874281883E0
6.418163596E0,1.848455518E-1,-1.752742529E-1,9.876674652E0
6.427820836E0,2.111666054E-1,-1.369891018E-1,9.898209572E0
6.437478075E0,1.848455518E-1,-1.537388563E-1,9.902996063E0
6.447135315E0,2.039881349E-1,-1.728814393E-1,9.893424034E0
6.456792555E0,1.800599098E-1,-1.633101404E-1,9.874281883E0
6.466449794E0,1.968096644E-1,-1.561316848E-1,9.876674652E0
6.476107034E0,2.063809484E-1,-1.585244983E-1,9.874281883E0
6.485764273E0,2.063809484E-1,-1.776670814E-1,9.893424034E0
6.495421513E0,1.992024779E-1,-1.800599098E-1,9.876674652E0
6.505078752E0,2.039881349E-1,-1.489532143E-1,9.869496346E0
6.514735992E0,1.992024779E-1,-1.704886109E-1,9.864710808E0
6.524393232E0,1.872383654E-1,-1.872383654E-1,9.886245728E0
6.534050523E0,1.896311939E-1,-1.680957973E-1,9.869496346E0
6.543707763E0,1.944168359E-1,-1.776670814E-1,9.883852959E0
6.553365002E0,1.944168359E-1,-1.776670814E-1,9.876674652E0
6.563022242E0,1.872383654E-1,-1.680957973E-1,9.886245728E0
6.572679482E0,1.824527234E-1,-1.657029688E-1,9.852746010E0
6.582336721E0,1.992024779E-1,-1.465603858E-1,9.867103577E0
6.591993961E0,1.968096644E-1,-1.609173268E-1,9.874281883E0
6.601651200E0,1.968096644E-1,-1.609173268E-1,9.879067421E0
6.611308440E0,2.135594189E-1,-1.441675574E-1,9.879067421E0
6.620965680E0,2.063809484E-1,-1.657029688E-1,9.881460190E0
6.630622919E0,2.015953064E-1,-1.369891018E-1,9.874281883E0
6.640280159E0,2.015953064E-1,-1.322034448E-1,9.864710808E0
6.649937398E0,1.944168359E-1,-1.752742529E-1,9.871889114E0
6.659594638E0,1.848455518E-1,-1.585244983E-1,9.874281883E0
6.669251877E0,1.872383654E-1,-1.728814393E-1,9.874281883E0
6.678909117E0,1.968096644E-1,-1.609173268E-1,9.871889114E0
6.688566357E0,1.824527234E-1,-1.848455518E-1,9.886245728E0
6.698223596E0,1.872383654E-1,-1.776670814E-1,9.888638496E0
6.707880836E0,1.704886109E-1,-1.752742529E-1,9.886245728E0
6.717538075E0,1.920240223E-1,-1.657029688E-1,9.881460190E0
6.727195315E0,1.992024779E-1,-1.752742529E-1,9.874281883E0
6.736852555E0,1.872383654E-1,-1.752742529E-1,9.874281883E0
6.746509794E0,1.872383654E-1,-1.633101404E-1,9.864710808E0
6.756167034E0,1.944168359E-1,-1.561316848E-1,9.888638496E0
6.765824273E0,1.992024779E-1,-1.609173268E-1,9.879067421E0
6.775481513E0,2.111666054E-1,-1.728814393E-1,9.864710808E0
6.785138752E0,1.896311939E-1,-1.585244983E-1,9.876674652E0
6.794795992E0,1.992024779E-1,-1.824527234E-1,9.874281883E0
6.804453232E0,1.944168359E-1,-1.585244983E-1,9.886245728E0
6.814110523E0,1.992024779E-1,-1.657029688E-1,9.886245728E0
6.823767763E0,1.800599098E-1,-1.680957973E-1,9.871889114E0
6.833425002E0,1.848455518E-1,-1.824527234E-1,9.857531548E0
6.843082190E0,1.968096644E-1,-1.776670814E-1,9.864710808E0
6.852739482E0,2.207378894E-1,-1.513460279E-1,9.864710808E0
6.862396721E0,1.824527234E-1,-1.609173268E-1,9.876674652E0
6.872053961E0,2.087737769E-1,-1.752742529E-1,9.867103577E0
6.881711200E0,1.872383654E-1,-1.848455518E-1,9.879067421E0
6.891368440E0,1.872383654E-1,-1.633101404E-1,9.862318039E0
6.901025680E0,2.135594189E-1,-1.513460279E-1,9.879067421E0
6.910682919E0,1.872383654E-1,-1.585244983E-1,9.874281883E0
6.920340159E0,1.944168359E-1,-1.633101404E-1,9.864710808E0
6.929997398E0,2.135594189E-1,-1.728814393E-1,9.864710808E0
6.939654638E0,1.680957973E-1,-1.728814393E-1,9.886245728E0
6.949311877E0,2.087737769E-1,-1.680957973E-1,9.888638496E0
6.958969117E0,1.944168359E-1,-1.585244983E-1,9.881460190E0
6.968626357E0,2.015953064E-1,-1.704886109E-1,9.886245728E0
6.978283596E0,1.992024779E-1,-1.680957973E-1,9.862318039E0
6.987940836E0,2.039881349E-1,-1.776670814E-1,9.879067421E0
6.997598075E0,1.944168359E-1,-1.680957973E-1,9.869496346E0
7.007255315E0,1.920240223E-1,-1.489532143E-1,9.879067421E0
7.016912555E0,1.920240223E-1,-1.657029688E-1,9.879067421E0
7.026569794E0,1.752742529E-1,-1.680957973E-1,9.876674652E0
7.036227034E0,2.087737769E-1,-1.633101404E-1,9.874281883E0
7.045884273E0,1.992024779E-1,-1.537388563E-1,9.893424034E0
7.055541513E0,1.896311939E-1,-1.752742529E-1,9.874281883E0
7.065198805E0,1.896311939E-1,-1.896311939E-1,9.871889114E0
7.074856044E0,2.039881349E-1,-1.489532143E-1,9.881460190E0
7.084513284E0,1.992024779E-1,-1.489532143E-1,9.886245728E0
7.094170523E0,1.968096644E-1,-1.848455518E-1,9.886245728E0
7.103827763E0,1.776670814E-1,-1.561316848E-1,9.883852959E0
7.113485002E0,2.015953064E-1,-1.728814393E-1,9.891031265E0
7.123142242E0,2.015953064E-1,-1.680957973E-1,9.869496346E0
7.132799482E0,2.087737769E-1,-1.752742529E-1,9.883852959E0
7.142456721E0,1.944168359E-1,-1.585244983E-1,9.879067421E0
7.152113961E0,2.111666054E-1,-1.274178028E-1,9.879067421E0
7.161771200E0,1.848455518E-1,-1.680957973E-1,9.876674652E0
7.171428440E0,2.015953064E-1,-1.752742529E-1,9.869496346E0
7.181085680E0,1.824527234E-1,-1.704886109E-1,9.876674652E0
7.190742919E0,1.920240223E-1,-1.657029688E-1,9.874281883E0
7.200400159E0,1.920240223E-1,-1.680957973E-1,9.879067421E0
7.210057398E0,1.872383654E-1,-1.776670814E-1,9.883852959E0
7.219714638E0,1.728814393E-1,-1.776670814E-1,9.876674652E0
7.229371877E0,2.183450609E-1,-1.537388563E-1,9.891031265E0
7.239029117E0,1.896311939E-1,-1.704886109E-1,9.886245728E0
7.248686357E0,1.872383654E-1,-1.633101404E-1,9.883852959E0
7.258343596E0,2.015953064E-1,-1.704886109E-1,9.874281883E0
7.268000888E0,1.896311939E-1,-1.992024779E-1,9.886245728E0
7.277658127E0,2.015953064E-1,-1.800599098E-1,9.883852959E0
7.287315367E0,2.063809484E-1,-1.704886109E-1,9.869496346E0
7.296972607E0,2.111666054E-1,-1.704886109E-1,9.879067421E0
7.306629846E0,1.968096644E-1,-1.585244983E-1,9.876674652E0
7.316287086E0,1.848455518E-1,-1.657029688E-1,9.886245728E0
7.325944325E0,1.968096644E-1,-1.680957973E-1,9.871889114E0
7.335601565E0,1.704886109E-1,-1.680957973E-1,9.867103577E0
7.345258805E0,2.111666054E-1,-1.728814393E-1,9.871889114E0
7.354916044E0,2.135594189E-1,-1.609173268E-1,9.871889114E0
7.364573284E0,2.063809484E-1,-1.728814393E-1,9.874281883E0
7.374230523E0,2.063809484E-1,-1.848455518E-1,9.881460190E0
7.383887763E0,2.111666054E-1,-1.776670814E-1,9.898209572E0
7.393545002E0,1.944168359E-1,-1.824527234E-1,9.871889114E0
7.403202242E0,1.920240223E-1,-1.872383654E-1,9.879067421E0
7.412859482E0,2.159522474E-1,-1.585244983E-1,9.886245728E0
7.422516721E0,1.968096644E-1,-1.585244983E-1,9.869496346E0
7.432173961E0,2.063809484E-1,-1.633101404E-1,9.888638496E0
7.441831252E0,1.944168359E-1,-1.609173268E-1,9.864710808E0
7.451488492E0,1.920240223E-1,-1.657029688E-1,9.864710808E0
7.461145732E0,1.848455518E-1,-1.704886109E-1,9.876674652E0
7.470802971E0,1.968096644E-1,-1.776670814E-1,9.881460190E0
7.480460211E0,1.992024779E-1,-1.633101404E-1,9.869496346E0
7.490117450E0,1.752742529E-1,-1.609173268E-1,9.874281883E0
7.499774690E0,1.968096644E-1,-1.704886109E-1,9.871889114E0
7.509431930E0,1.752742529E-1,-1.369891018E-1,9.895816803E0
7.519089169E0,1.704886109E-1,-1.441675574E-1,9.867103577E0
7.528746409E0,2.039881349E-1,-1.633101404E-1,9.888638496E0
7.538403648E0,1.944168359E-1,-1.489532143E-1,9.883852959E0
7.548060888E0,1.824527234E-1,-1.609173268E-1,9.888638496E0
7.557718127E0,1.824527234E-1,-1.465603858E-1,9.879067421E0
7.567375367E0,1.968096644E-1,-1.585244983E-1,9.871889114E0
7.577032607E0,1.848455518E-1,-1.680957973E-1,9.871889114E0
7.586689846E0,2.063809484E-1,-1.657029688E-1,9.881460190E0
7.596347138E0,2.063809484E-1,-1.657029688E-1,9.869496346E0
7.606004377E0,1.992024779E-1,-1.609173268E-1,9.876674652E0
7.615661617E0,1.968096644E-1,-1.728814393E-1,9.879067421E0
7.625318857E0,1.872383654E-1,-1.657029688E-1,9.876674652E0
7.634976096E0,1.776670814E-1,-1.393819153E-1,9.888638496E0
7.644633336E0,1.944168359E-1,-1.609173268E-1,9.871889114E0
7.654290575E0,1.944168359E-1,-1.752742529E-1,9.859925270E0
7.663947815E0,1.896311939E-1,-1.513460279E-1,9.871889114E0
7.673605055E0,1.992024779E-1,-1.322034448E-1,9.879067421E0
7.683262294E0,1.968096644E-1,-1.752742529E-1,9.874281883E0
7.692919534E0,1.896311939E-1,-1.752742529E-1,9.867103577E0
7.702576773E0,1.800599098E-1,-1.633101404E-1,9.874281883E0
7.712234013E0,1.896311939E-1,-1.680957973E-1,9.867103577E0
7.721891252E0,1.920240223E-1,-1.633101404E-1,9.871889114E0
7.731548492E0,1.896311939E-1,-1.561316848E-1,9.874281883E0
7.741205784E0,1.872383654E-1,-1.633101404E-1,9.876674652E0
7.750863023E0,2.015953064E-1,-1.585244983E-1,9.881460190E0
7.760520263E0,2.087737769E-1,-1.800599098E-1,9.881460190E0
7.770177502E0,2.015953064E-1,-1.752742529E-1,9.876674652E0
7.779834742E0,2.063809484E-1,-1.704886109E-1,9.883852959E0
7.789491982E0,2.063809484E-1,-1.704886109E-1,9.869496346E0
7.799149221E0,1.968096644E-1,-1.896311939E-1,9.879067421E0
7.808806461E0,1.920240223E-1,-1.657029688E-1,9.876674652E0
7.818463700E0,2.135594189E-1,-1.992024779E-1,9.871889114E0
7.828120940E0,2.039881349E-1,-1.752742529E-1,9.874281883E0
7.837778180E0,1.657029688E-1,-1.489532143E-1,9.871889114E0
7.847435419E0,1.680957973E-1,-1.704886109E-1,9.871889114E0
7.857092659E0,1.752742529E-1,-1.800599098E-1,9.891031265E0
7.866749898E0,1.992024779E-1,-1.633101404E-1,9.886245728E0
7.876407190E0,2.135594189E-1,-1.633101404E-1,9.874281883E0
7.886064430E0,1.992024779E-1,-1.752742529E-1,9.879067421E0
7.895721669E0,2.015953064E-1,-1.824527234E-1,9.876674652E0
7.905378909E0,2.135594189E-1,-1.776670814E-1,9.874281883E0
7.915036148E0,1.872383654E-1,-1.489532143E-1,9.874281883E0
7.924693388E0,1.872383654E-1,-1.728814393E-1,9.874281883E0
7.934350627E0,1.920240223E-1,-1.585244983E-1,9.874281883E0
7.944007867E0,1.944168359E-1,-1.680957973E-1,9.883852959E0
7.953665107E0,1.920240223E-1,-1.848455518E-1,9.879067421E0
7.963322346E0,1.944168359E-1,-1.872383654E-1,9.869496346E0
7.972979586E0,2.183450609E-1,-1.680957973E-1,9.879067421E0
7.982636825E0,1.968096644E-1,-1.585244983E-1,9.876674652E0
7.992294065E0,1.680957973E-1,-1.465603858E-1,9.883852959E0
8.001951305E0,2.063809484E-1,-1.872383654E-1,9.874281883E0
8.011608596E0,1.992024779E-1,-1.633101404E-1,9.869496346E0
8.021265836E0,2.159522474E-1,-1.513460279E-1,9.876674652E0
8.030923075E0,1.728814393E-1,-1.657029688E-1,9.881460190E0
8.040580315E0,1.776670814E-1,-1.585244983E-1,9.862318039E0
8.050237555E0,1.896311939E-1,-1.680957973E-1,9.871889114E0
8.059894794E0,1.944168359E-1,-1.465603858E-1,9.874281883E0
8.069552034E0,1.920240223E-1,-1.489532143E-1,9.881460190E0
8.079209273E0,1.968096644E-1,-1.752742529E-1,9.879067421E0
8.088866513E0,1.800599098E-1,-1.585244983E-1,9.886245728E0
8.098523752E0,1.968096644E-1,-1.561316848E-1,9.879067421E0
8.108180992E0,1.992024779E-1,-1.657029688E-1,9.876674652E0
8.117838232E0,1.896311939E-1,-1.585244983E-1,9.886245728E0
8.127495523E0,1.848455518E-1,-1.848455518E-1,9.881460190E0
8.137152763E0,1.872383654E-1,-1.752742529E-1,9.867103577E0
8.146810002E0,1.920240223E-1,-1.657029688E-1,9.871889114E0
8.156467242E0,2.039881349E-1,-1.776670814E-1,9.876674652E0
8.166124482E0,1.992024779E-1,-1.680957973E-1,9.886245728E0
8.175781721E0,2.039881349E-1,-1.800599098E-1,9.888638496E0
8.185438961E0,1.920240223E-1,-1.728814393E-1,9.867103577E0
8.195096200E0,2.015953064E-1,-1.704886109E-1,9.881460190E0
8.204753440E0,1.872383654E-1,-1.561316848E-1,9.879067421E0
8.214410680E0,2.207378894E-1,-1.609173268E-1,9.874281883E0
8.224067919E0,2.255235314E-1,-1.537388563E-1,9.883852959E0
8.233725211E0,1.944168359E-1,-1.752742529E-1,9.871889114E0
8.243382450E0,1.944168359E-1,-1.441675574E-1,9.869496346E0
8.253039690E0,1.968096644E-1,-1.752742529E-1,9.869496346E0
8.262696930E0,1.896311939E-1,-1.633101404E-1,9.869496346E0
8.272354169E0,2.087737769E-1,-1.633101404E-1,9.893424034E0
8.282011409E0,1.872383654E-1,-1.345962733E-1,9.857531548E0
8.291668648E0,1.992024779E-1,-1.537388563E-1,9.871889114E0
8.301325888E0,1.657029688E-1,-1.752742529E-1,9.883852959E0
8.310983127E0,1.824527234E-1,-1.274178028E-1,9.876674652E0
8.320640367E0,1.920240223E-1,-1.776670814E-1,9.879067421E0
8.330297607E0,1.872383654E-1,-1.920240223E-1,9.893424034E0
8.339954846E0,1.992024779E-1,-1.680957973E-1,9.895816803E0
8.349612086E0,2.039881349E-1,-1.585244983E-1,9.888638496E0
8.359269325E0,1.848455518E-1,-1.680957973E-1,9.881460190E0
8.368926617E0,1.752742529E-1,-1.728814393E-1,9.881460190E0
8.378583857E0,1.872383654E-1,-1.561316848E-1,9.867103577E0
8.388241096E0,2.111666054E-1,-1.657029688E-1,9.874281883E0
8.397898336E0,2.111666054E-1,-1.465603858E-1,9.876674652E0
8.407555575E0,2.159522474E-1,-1.489532143E-1,9.879067421E0
8.417212815E0,1.896311939E-1,-1.537388563E-1,9.871889114E0
8.426870055E0,1.896311939E-1,-1.561316848E-1,9.869496346E0
8.436527294E0,1.872383654E-1,-1.393819153E-1,9.881460190E0
8.446184534E0,1.872383654E-1,-1.704886109E-1,9.874281883E0
8.455841773E0,1.848455518E-1,-1.513460279E-1,9.879067421E0
8.465499013E0,2.063809484E-1,-1.872383654E-1,9.879067421E0
8.475156305E0,2.111666054E-1,-1.657029688E-1,9.869496346E0
8.484813544E0,1.824527234E-1,-1.704886109E-1,9.879067421E0
8.494470784E0,1.944168359E-1,-1.704886109E-1,9.879067421E0
8.504128023E0,2.111666054E-1,-1.585244983E-1,9.886245728E0
8.513785263E0,1.848455518E-1,-1.680957973E-1,9.869496346E0
8.523442502E0,1.824527234E-1,-1.609173268E-1,9.871889114E0
8.533099742E0,1.776670814E-1,-1.609173268E-1,9.864710808E0
8.542756982E0,1.824527234E-1,-1.537388563E-1,9.871889114E0
8.552414221E0,1.848455518E-1,-1.680957973E-1,9.871889114E0
8.562071461E0,2.015953064E-1,-1.657029688E-1,9.879067421E0
8.571728752E0,1.872383654E-1,-1.776670814E-1,9.876674652E0
8.581385992E0,1.992024779E-1,-1.704886109E-1,9.883852959E0
8.591043232E0,1.920240223E-1,-1.513460279E-1,9.867103577E0
8.600700471E0,2.063809484E-1,-1.680957973E-1,9.867103577E0
8.610357711E0,1.992024779E-1,-1.609173268E-1,9.881460190E0
8.620014950E0,2.015953064E-1,-1.489532143E-1,9.874281883E0
8.629672190E0,1.752742529E-1,-1.680957973E-1,9.867103577E0
8.639329430E0,1.968096644E-1,-1.800599098E-1,9.864710808E0
8.648986669E0,1.752742529E-1,-1.680957973E-1,9.883852959E0
8.658643909E0,1.992024779E-1,-1.776670814E-1,9.876674652E0
8.668301148E0,1.800599098E-1,-1.513460279E-1,9.879067421E0
8.677958388E0,1.752742529E-1,-1.728814393E-1,9.874281883E0
8.687615680E0,1.992024779E-1,-1.728814393E-1,9.891031265E0
8.697272919E0,1.968096644E-1,-1.657029688E-1,9.871889114E0
8.706930159E0,1.848455518E-1,-1.657029688E-1,9.871889114E0
8.716587398E0,2.063809484E-1,-1.680957973E-1,9.876674652E0
8.726244638E0,2.015953064E-1,-1.513460279E-1,9.883852959E0
8.735901877E0,1.944168359E-1,-1.704886109E-1,9.879067421E0
8.745559117E0,1.728814393E-1,-1.848455518E-1,9.883852959E0
8.755216357E0,1.992024779E-1,-1.728814393E-1,9.883852959E0
8.764873596E0,1.992024779E-1,-1.537388563E-1,9.881460190E0
8.774530888E0,2.063809484E-1,-1.609173268E-1,9.886245728E0
8.784188127E0,1.824527234E-1,-1.585244983E-1,9.893424034E0
8.793845367E0,1.992024779E-1,-1.704886109E-1,9.888638496E0
8.803502607E0,1.920240223E-1,-1.465603858E-1,9.888638496E0
8.813159846E0,2.015953064E-1,-1.561316848E-1,9.883852959E0
8.822817086E0,1.848455518E-1,-1.513460279E-1,9.886245728E0
8.832474325E0,1.776670814E-1,-1.417747438E-1,9.862318039E0
8.842131565E0,1.848455518E-1,-1.752742529E-1,9.879067421E0
8.851788805E0,1.944168359E-1,-1.704886109E-1,9.874281883E0
8.861446044E0,1.944168359E-1,-1.561316848E-1,9.883852959E0
8.871103336E0,1.872383654E-1,-1.752742529E-1,9.876674652E0
8.880760575E0,1.824527234E-1,-1.680957973E-1,9.876674652E0
8.890417815E0,1.944168359E-1,-1.752742529E-1,9.879067421E0
8.900075055E0,2.063809484E-1,-1.704886109E-1,9.888638496E0
8.909732294E0,1.944168359E-1,-1.728814393E-1,9.886245728E0
8.919389534E0,1.920240223E-1,-1.369891018E-1,9.876674652E0
8.929046773E0,1.824527234E-1,-1.824527234E-1,9.874281883E0
8.938704013E0,1.896311939E-1,-1.704886109E-1,9.867103577E0
8.948361252E0,2.015953064E-1,-1.585244983E-1,9.867103577E0
8.958018544E0,1.896311939E-1,-1.633101404E-1,9.883852959E0
8.967675784E0,1.944168359E-1,-1.680957973E-1,9.881460190E0
8.977333023E0,1.968096644E-1,-1.752742529E-1,9.883852959E0
8.986990263E0,2.039881349E-1,-1.489532143E-1,9.867103577E0
8.996647502E0,1.848455518E-1,-1.824527234E-1,9.871889114E0
9.006304742E0,2.087737769E-1,-1.609173268E-1,9.879067421E0
9.015961982E0,1.896311939E-1,-1.848455518E-1,9.891031265E0
9.025619221E0,1.944168359E-1,-1.537388563E-1,9.879067421E0
9.035276461E0,1.944168359E-1,-1.728814393E-1,9.869496346E0
9.044933700E0,1.824527234E-1,-1.728814393E-1,9.879067421E0
9.054590992E0,1.848455518E-1,-1.824527234E-1,9.874281883E0
9.064248232E0,1.848455518E-1,-1.633101404E-1,9.864710808E0
9.073905471E0,1.704886109E-1,-1.776670814E-1,9.893424034E0
9.083562711E0,1.704886109E-1,-1.657029688E-1,9.888638496E0
9.093219950E0,1.728814393E-1,-1.250249892E-1,9.876674652E0
9.102877190E0,1.848455518E-1,-1.848455518E-1,9.876674652E0
9.112534430E0,2.087737769E-1,-1.680957973E-1,9.879067421E0
9.122191669E0,1.728814393E-1,-1.585244983E-1,9.881460190E0
9.131848909E0,1.920240223E-1,-1.393819153E-1,9.871889114E0
9.141506200E0,1.944168359E-1,-1.848455518E-1,9.867103577E0
9.151163440E0,1.872383654E-1,-1.585244983E-1,9.886245728E0
9.160820680E0,1.992024779E-1,-1.752742529E-1,9.862318039E0
9.170477919E0,1.920240223E-1,-1.561316848E-1,9.871889114E0
9.180135159E0,2.111666054E-1,-1.848455518E-1,9.869496346E0
9.189792398E0,1.944168359E-1,-1.657029688E-1,9.864710808E0
9.199449638E0,2.135594189E-1,-1.704886109E-1,9.869496346E0
9.209106877E0,1.800599098E-1,-1.657029688E-1,9.859925270E0
9.218764117E0,1.968096644E-1,-1.561316848E-1,9.871889114E0
9.228421409E0,2.015953064E-1,-1.680957973E-1,9.888638496E0
9.238078648E0,1.968096644E-1,-1.633101404E-1,9.874281883E0
9.247735888E0,1.992024779E-1,-1.441675574E-1,9.881460190E0
9.257393127E0,2.039881349E-1,-1.345962733E-1,9.874281883E0
9.267050367E0,1.848455518E-1,-1.561316848E-1,9.881460190E0
9.276707607E0,1.752742529E-1,-1.609173268E-1,9.881460190E0
9.286364846E0,2.015953064E-1,-1.680957973E-1,9.874281883E0
9.296022086E0,1.968096644E-1,-1.728814393E-1,9.881460190E0
9.305679377E0,1.776670814E-1,-1.537388563E-1,9.891031265E0
9.315336617E0,2.063809484E-1,-1.704886109E-1,9.886245728E0
9.324993857E0,1.848455518E-1,-1.704886109E-1,9.871889114E0
9.334651096E0,1.968096644E-1,-1.513460279E-1,9.876674652E0
9.344308336E0,1.920240223E-1,-1.489532143E-1,9.874281883E0
9.353965575E0,1.968096644E-1,-1.465603858E-1,9.871889114E0
9.363622815E0,1.944168359E-1,-1.633101404E-1,9.881460190E0
9.373280055E0,1.800599098E-1,-1.704886109E-1,9.883852959E0
9.382937294E0,1.896311939E-1,-1.393819153E-1,9.876674652E0
9.392594586E0,1.800599098E-1,-1.537388563E-1,9.879067421E0
9.402251825E0,1.944168359E-1,-1.800599098E-1,9.886245728E0
9.411909065E0,1.872383654E-1,-1.800599098E-1,9.881460190E0
9.421566305E0,1.800599098E-1,-1.609173268E-1,9.867103577E0
9.431223544E0,2.063809484E-1,-1.489532143E-1,9.876674652E0
9.440880784E0,2.111666054E-1,-1.776670814E-1,9.891031265E0
9.450538023E0,2.087737769E-1,-1.680957973E-1,9.874281883E0
9.460195315E0,1.968096644E-1,-1.728814393E-1,9.874281883E0
9.469852555E0,1.872383654E-1,-1.704886109E-1,9.886245728E0
9.479509794E0,1.920240223E-1,-1.633101404E-1,9.864710808E0
9.489167034E0,2.111666054E-1,-1.585244983E-1,9.869496346E0
9.498824273E0,1.920240223E-1,-1.465603858E-1,9.871889114E0
9.508481513E0,1.920240223E-1,-1.752742529E-1,9.883852959E0
9.518138752E0,1.968096644E-1,-1.609173268E-1,9.879067421E0
9.527795992E0,2.039881349E-1,-1.561316848E-1,9.893424034E0
9.537453232E0,1.992024779E-1,-1.776670814E-1,9.881460190E0
9.547110523E0,2.015953064E-1,-1.585244983E-1,9.876674652E0
9.556767763E0,2.087737769E-1,-1.585244983E-1,9.883852959E0
9.566425002E0,1.968096644E-1,-1.728814393E-1,9.876674652E0
9.576082242E0,1.992024779E-1,-1.561316848E-1,9.871889114E0
9.585739482E0,2.111666054E-1,-1.609173268E-1,9.869496346E0
9.595396721E0,1.680957973E-1,-1.561316848E-1,9.879067421E0
9.605053961E0,1.920240223E-1,-1.704886109E-1,9.871889114E0
9.614711200E0,1.824527234E-1,-1.824527234E-1,9.879067421E0
9.624368492E0,1.992024779E-1,-1.824527234E-1,9.871889114E0
9.634025732E0,1.944168359E-1,-1.441675574E-1,9.869496346E0
9.643682971E0,2.111666054E-1,-1.609173268E-1,9.874281883E0
9.653340211E0,1.992024779E-1,-1.513460279E-1,9.874281883E0
9.662997450E0,1.800599098E-1,-1.561316848E-1,9.874281883E0
9.672654690E0,1.896311939E-1,-1.776670814E-1,9.874281883E0
9.682311930E0,1.992024779E-1,-1.513460279E-1,9.879067421E0
9.691969221E0,1.896311939E-1,-1.752742529E-1,9.874281883E0
9.701626461E0,1.944168359E-1,-1.704886109E-1,9.876674652E0
9.711283700E0,1.824527234E-1,-1.537388563E-1,9.864710808E0
9.720940940E0,1.896311939E-1,-1.824527234E-1,9.874281883E0
9.730598180E0,1.728814393E-1,-1.250249892E-1,9.876674652E0
9.740255419E0,1.920240223E-1,-1.728814393E-1,9.874281883E0
9.749912659E0,1.920240223E-1,-1.848455518E-1,9.869496346E0
9.759569898E0,2.111666054E-1,-1.800599098E-1,9.879067421E0
9.769227190E0,1.824527234E-1,-1.704886109E-1,9.879067421E0
9.778884430E0,2.063809484E-1,-1.704886109E-1,9.879067421E0
9.788541669E0,1.824527234E-1,-1.657029688E-1,9.883852959E0
9.798198909E0,1.992024779E-1,-1.704886109E-1,9.883852959E0
9.807856148E0,1.824527234E-1,-1.704886109E-1,9.881460190E0
9.817513388E0,2.111666054E-1,-1.680957973E-1,9.879067421E0
9.827170627E0,1.896311939E-1,-1.393819153E-1,9.862318039E0
9.836827919E0,1.944168359E-1,-1.513460279E-1,9.871889114E0
9.846485159E0,2.111666054E-1,-1.848455518E-1,9.888638496E0
9.856142398E0,1.944168359E-1,-1.776670814E-1,9.883852959E0
9.865799638E0,1.776670814E-1,-1.824527234E-1,9.893424034E0
9.875456877E0,1.944168359E-1,-1.489532143E-1,9.886245728E0
9.885114117E0,1.800599098E-1,-1.609173268E-1,9.883852959E0
9.894771357E0,1.968096644E-1,-1.680957973E-1,9.879067421E0
9.904428596E0,1.824527234E-1,-1.704886109E-1,9.876674652E0
9.914085888E0,1.920240223E-1,-1.657029688E-1,9.886245728E0
9.923743127E0,1.896311939E-1,-1.728814393E-1,9.879067421E0
9.933400367E0,1.704886109E-1,-1.728814393E-1,9.859925270E0
9.943057607E0,1.896311939E-1,-1.537388563E-1,9.869496346E0
9.952714846E0,1.968096644E-1,-1.752742529E-1,9.864710808E0
9.962372086E0,1.968096644E-1,-1.609173268E-1,9.879067421E0
9.972029325E0,1.920240223E-1,-1.537388563E-1,9.888638496E0
9.981686617E0,1.728814393E-1,-1.824527234E-1,9.883852959E0
9.991343857E0,2.015953064E-1,-1.848455518E-1,9.879067421E0
1.000100110E1,1.728814393E-1,-1.848455518E-1,9.871889114E0
1.001065834E1,2.063809484E-1,-1.369891018E-1,9.867103577E0
1.002031558E1,1.704886109E-1,-1.513460279E-1,9.883852959E0
1.002997282E1,2.039881349E-1,-1.513460279E-1,9.869496346E0
1.003963006E1,2.039881349E-1,-1.728814393E-1,9.876674652E0
1.004928735E1,1.872383654E-1,-1.609173268E-1,9.867103577E0
1.005894459E1,1.872383654E-1,-1.752742529E-1,9.871889114E0
1.006860182E1,1.800599098E-1,-1.824527234E-1,9.895816803E0
1.007825907E1,1.872383654E-1,-1.537388563E-1,9.874281883E0
1.008791630E1,1.800599098E-1,-1.776670814E-1,9.871889114E0
1.009757354E1,1.728814393E-1,-1.585244983E-1,9.876674652E0
1.010723078E1,2.015953064E-1,-1.585244983E-1,9.874281883E0
1.011688808E1,1.824527234E-1,-1.728814393E-1,9.871889114E0
1.012654532E1,1.800599098E-1,-1.704886109E-1,9.881460190E0
1.013620256E1,2.015953064E-1,-1.633101404E-1,9.886245728E0
1.014585979E1,1.944168359E-1,-1.752742529E-1,9.869496346E0
1.015551703E1,1.944168359E-1,-1.824527234E-1,9.886245728E0
1.016517427E1,2.015953064E-1,-1.752742529E-1,9.879067421E0
1.017483151E1,1.968096644E-1,-1.728814393E-1,9.886245728E0
1.018448880E1,2.015953064E-1,-1.800599098E-1,9.874281883E0
1.019414604E1,1.992024779E-1,-1.609173268E-1,9.862318039E0
1.020380328E1,1.800599098E-1,-1.728814393E-1,9.876674652E0
1.021346052E1,1.776670814E-1,-1.633101404E-1,9.874281883E0
1.022311776E1,1.968096644E-1,-1.250249892E-1,9.881460190E0
1.023277500E1,1.944168359E-1,-1.776670814E-1,9.881460190E0
1.024243224E1,1.848455518E-1,-1.728814393E-1,9.883852959E0
1.025208953E1,1.968096644E-1,-1.752742529E-1,9.883852959E0
1.026174677E1,1.728814393E-1,-1.800599098E-1,9.869496346E0
1.027140401E1,1.680957973E-1,-1.824527234E-1,9.871889114E0
1.028106125E1,1.848455518E-1,-1.776670814E-1,9.891031265E0
1.029071849E1,2.039881349E-1,-1.657029688E-1,9.876674652E0
1.030037573E1,1.848455518E-1,-1.513460279E-1,9.874281883E0
1.031003297E1,1.896311939E-1,-1.728814393E-1,9.864710808E0
1.031969026E1,2.063809484E-1,-1.633101404E-1,9.879067421E0
1.032934750E1,1.968096644E-1,-1.848455518E-1,9.874281883E0
1.033900474E1,1.944168359E-1,-1.824527234E-1,9.883852959E0
1.034866198E1,2.087737769E-1,-1.704886109E-1,9.881460190E0
1.035831922E1,2.039881349E-1,-1.657029688E-1,9.883852959E0
1.036797646E1,2.063809484E-1,-1.680957973E-1,9.876674652E0
1.037763370E1,1.944168359E-1,-1.944168359E-1,9.876674652E0
1.038729099E1,1.992024779E-1,-1.824527234E-1,9.876674652E0
1.039694823E1,1.944168359E-1,-1.489532143E-1,9.876674652E0
1.040660547E1,1.896311939E-1,-1.585244983E-1,9.883852959E0
1.041626271E1,1.920240223E-1,-1.896311939E-1,9.874281883E0
1.042591995E1,1.968096644E-1,-1.537388563E-1,9.874281883E0
1.043557719E1,2.087737769E-1,-1.537388563E-1,9.876674652E0
1.044523448E1,1.896311939E-1,-1.776670814E-1,9.867103577E0
1.045489172E1,1.609173268E-1,-1.800599098E-1,9.871889114E0
1.046454896E1,1.848455518E-1,-1.489532143E-1,9.891031265E0
1.047420620E1,1.992024779E-1,-1.609173268E-1,9.881460190E0
1.048386344E1,1.992024779E-1,-1.298106313E-1,9.883852959E0
1.049352068E1,2.111666054E-1,-1.776670814E-1,9.886245728E0
1.050317792E1,1.752742529E-1,-1.848455518E-1,9.883852959E0
1.051283521E1,1.968096644E-1,-1.920240223E-1,9.867103577E0
1.052249245E1,1.920240223E-1,-1.633101404E-1,9.874281883E0
1.053214969E1,2.039881349E-1,-1.776670814E-1,9.876674652E0
1.054180693E1,1.896311939E-1,-1.704886109E-1,9.879067421E0
1.055146417E1,1.824527234E-1,-1.537388563E-1,9.876674652E0
1.056112141E1,1.896311939E-1,-1.465603858E-1,9.881460190E0
1.057077870E1,1.992024779E-1,-1.441675574E-1,9.879067421E0
1.058043594E1,1.992024779E-1,-1.824527234E-1,9.876674652E0
1.059009318E1,1.776670814E-1,-1.633101404E-1,9.862318039E0
1.059975042E1,1.920240223E-1,-1.609173268E-1,9.881460190E0
1.060940766E1,1.872383654E-1,-1.776670814E-1,9.881460190E0
1.061906490E1,2.015953064E-1,-1.704886109E-1,9.886245728E0
1.062872214E1,1.920240223E-1,-1.585244983E-1,9.879067421E0
1.063837943E1,2.039881349E-1,-1.537388563E-1,9.879067421E0
1.064803667E1,1.944168359E-1,-1.657029688E-1,9.879067421E0
1.065769391E1,1.800599098E-1,-1.465603858E-1,9.881460190E0
1.066735115E1,2.063809484E-1,-1.585244983E-1,9.881460190E0
1.067700839E1,1.680957973E-1,-1.393819153E-1,9.888638496E0
1.068666563E1,1.824527234E-1,-1.752742529E-1,9.859925270E0
1.069632292E1,1.944168359E-1,-1.824527234E-1,9.876674652E0
1.070598016E1,1.848455518E-1,-1.633101404E-1,9.871889114E0
1.071563740E1,2.015953064E-1,-1.680957973E-1,9.874281883E0
1.072529464E1,1.968096644E-1,-1.728814393E-1,9.881460190E0
1.073495188E1,1.800599098E-1,-1.609173268E-1,9.879067421E0
1.074460912E1,1.992024779E-1,-1.657029688E-1,9.874281883E0
1.075426641E1,1.968096644E-1,-1.465603858E-1,9.876674652E0
1.076392365E1,1.848455518E-1,-1.824527234E-1,9.876674652E0
1.077358089E1,1.848455518E-1,-1.704886109E-1,9.876674652E0
1.078323813E1,1.920240223E-1,-1.417747438E-1,9.886245728E0
1.079289537E1,1.824527234E-1,-1.752742529E-1,9.879067421E0
1.080255261E1,1.872383654E-1,-1.537388563E-1,9.876674652E0
1.081220990E1,1.848455518E-1,-1.609173268E-1,9.888638496E0
1.082186714E1,1.800599098E-1,-1.537388563E-1,9.888638496E0
1.083152438E1,2.039881349E-1,-1.752742529E-1,9.881460190E0
1.084118162E1,2.135594189E-1,-1.824527234E-1,9.883852959E0
1.085083886E1,1.752742529E-1,-1.872383654E-1,9.874281883E0
1.086049610E1,1.824527234E-1,-1.680957973E-1,9.879067421E0
1.087015339E1,1.896311939E-1,-1.704886109E-1,9.879067421E0
1.087981063E1,1.944168359E-1,-1.561316848E-1,9.864710808E0
1.088946787E1,1.872383654E-1,-1.752742529E-1,9.881460190E0
1.089912511E1,1.872383654E-1,-1.513460279E-1,9.876674652E0
1.090878235E1,2.159522474E-1,-1.704886109E-1,9.879067421E0
1.091843959E1,2.111666054E-1,-1.537388563E-1,9.888638496E0
1.092809688E1,1.944168359E-1,-1.704886109E-1,9.879067421E0
1.093775412E1,1.920240223E-1,-1.537388563E-1,9.883852959E0
1.094741136E1,1.872383654E-1,-1.728814393E-1,9.857531548E0
1.095706860E1,1.872383654E-1,-1.848455518E-1,9.879067421E0
1.096672584E1,1.800599098E-1,-1.752742529E-1,9.886245728E0
1.097638308E1,1.728814393E-1,-1.537388563E-1,9.891031265E0
1.098604037E1,1.944168359E-1,-1.417747438E-1,9.874281883E0
1.099569761E1,1.896311939E-1,-1.633101404E-1,9.879067421E0
1.100535485E1,1.992024779E-1,-1.800599098E-1,9.867103577E0
1.101501209E1,1.848455518E-1,-1.585244983E-1,9.881460190E0
1.102466933E1,1.848455518E-1,-1.585244983E-1,9.881460190E0
1.103432656E1,1.944168359E-1,-1.657029688E-1,9.869496346E0
1.104398386E1,1.968096644E-1,-1.752742529E-1,9.883852959E0
1.105364110E1,1.944168359E-1,-1.537388563E-1,9.871889114E0
1.106329834E1,1.944168359E-1,-1.704886109E-1,9.874281883E0
1.107295558E1,1.944168359E-1,-1.704886109E-1,9.859925270E0
1.108261282E1,1.896311939E-1,-1.537388563E-1,9.891031265E0
1.109227011E1,1.585244983E-1,-1.680957973E-1,9.881460190E0
1.110192735E1,1.896311939E-1,-1.680957973E-1,9.879067421E0
1.111158459E1,1.872383654E-1,-1.537388563E-1,9.898209572E0
1.112124182E1,2.087737769E-1,-1.465603858E-1,9.881460190E0
1.113089907E1,1.992024779E-1,-1.633101404E-1,9.874281883E0
1.114055630E1,1.992024779E-1,-1.680957973E-1,9.862318039E0
1.115021354E1,1.920240223E-1,-1.992024779E-1,9.881460190E0
1.115987084E1,1.944168359E-1,-1.345962733E-1,9.876674652E0
1.116952808E1,1.848455518E-1,-1.776670814E-1,9.876674652E0
1.117918532E1,1.944168359E-1,-1.585244983E-1,9.888638496E0
1.118884256E1,1.872383654E-1,-1.800599098E-1,9.886245728E0
1.119849979E1,1.920240223E-1,-1.489532143E-1,9.883852959E0
1.120815709E1,1.968096644E-1,-1.561316848E-1,9.888638496E0
1.121781432E1,1.944168359E-1,-1.585244983E-1,9.881460190E0
1.122747156E1,2.087737769E-1,-1.728814393E-1,9.876674652E0
1.123712881E1,1.944168359E-1,-1.513460279E-1,9.874281883E0
1.124678604E1,1.800599098E-1,-1.537388563E-1,9.888638496E0
1.125644328E1,1.920240223E-1,-1.585244983E-1,9.879067421E0
1.126610058E1,2.015953064E-1,-1.393819153E-1,9.888638496E0
1.127575782E1,1.920240223E-1,-1.657029688E-1,9.881460190E0
1.128541506E1,1.968096644E-1,-1.489532143E-1,9.881460190E0
1.129507229E1,1.920240223E-1,-1.417747438E-1,9.876674652E0
1.130472953E1,2.039881349E-1,-1.465603858E-1,9.881460190E0
1.131438677E1,1.968096644E-1,-1.633101404E-1,9.876674652E0
1.132404406E1,1.872383654E-1,-1.513460279E-1,9.888638496E0
1.133370130E1,1.824527234E-1,-1.633101404E-1,9.874281883E0
1.134335854E1,1.848455518E-1,-1.848455518E-1,9.888638496E0
1.135301578E1,1.872383654E-1,-1.657029688E-1,9.883852959E0
1.136267302E1,2.063809484E-1,-1.752742529E-1,9.869496346E0
1.137233032E1,2.159522474E-1,-1.537388563E-1,9.874281883E0
1.138198756E1,1.896311939E-1,-1.489532143E-1,9.879067421E0
1.139164479E1,1.776670814E-1,-1.609173268E-1,9.874281883E0
1.140130203E1,2.087737769E-1,-1.513460279E-1,9.879067421E0
1.141095927E1,1.824527234E-1,-1.274178028E-1,9.867103577E0
1.142061651E1,1.920240223E-1,-1.633101404E-1,9.879067421E0
1.143027380E1,2.015953064E-1,-1.824527234E-1,9.871889114E0
1.143993104E1,2.039881349E-1,-1.920240223E-1,9.876674652E0
1.144958828E1,1.968096644E-1,-1.537388563E-1,9.876674652E0
1.145924552E1,1.872383654E-1,-1.561316848E-1,9.871889114E0
1.146890276E1,1.752742529E-1,-1.848455518E-1,9.879067421E0
1.147856006E1,1.848455518E-1,-1.848455518E-1,9.871889114E0
1.148821729E1,1.896311939E-1,-1.609173268E-1,9.883852959E0
1.149787453E1,2.039881349E-1,-1.537388563E-1,9.876674652E0
1.150753177E1,1.968096644E-1,-1.728814393E-1,9.874281883E0
1.151718901E1,1.896311939E-1,-1.657029688E-1,9.867103577E0
1.152684625E1,1.968096644E-1,-1.561316848E-1,9.864710808E0
1.153650354E1,1.920240223E-1,-1.417747438E-1,9.881460190E0
1.154616078E1,1.896311939E-1,-1.800599098E-1,9.874281883E0
1.155581802E1,1.920240223E-1,-1.752742529E-1,9.879067421E0
1.156547526E1,2.015953064E-1,-1.657029688E-1,9.886245728E0
1.157513250E1,1.944168359E-1,-1.513460279E-1,9.883852959E0
1.158478979E1,1.896311939E-1,-1.561316848E-1,9.869496346E0
1.159444703E1,1.920240223E-1,-1.513460279E-1,9.879067421E0
1.160410427E1,2.039881349E-1,-1.776670814E-1,9.900602341E0
1.161376151E1,1.920240223E-1,-1.633101404E-1,9.888638496E0
1.162341875E1,1.944168359E-1,-1.848455518E-1,9.888638496E0
1.163307604E1,2.039881349E-1,-1.465603858E-1,9.874281883E0
1.164273328E1,1.872383654E-1,-1.226321608E-1,9.857531548E0
1.165239052E1,2.135594189E-1,-1.728814393E-1,9.874281883E0
1.166204776E1,1.896311939E-1,-1.752742529E-1,9.867103577E0
1.167170500E1,1.896311939E-1,-1.609173268E-1,9.869496346E0
1.168136224E1,1.992024779E-1,-1.609173268E-1,9.876674652E0
1.169101953E1,1.848455518E-1,-1.633101404E-1,9.864710808E0
1.170067677E1,1.776670814E-1,-1.752742529E-1,9.879067421E0
1.171033401E1,1.704886109E-1,-1.489532143E-1,9.888638496E0
1.171999125E1,1.752742529E-1,-1.513460279E-1,9.893424034E0
1.172964849E1,1.896311939E-1,-1.848455518E-1,9.871889114E0
1.173930573E1,2.015953064E-1,-1.633101404E-1,9.893424034E0
1.174896302E1,2.039881349E-1,-1.752742529E-1,9.886245728E0
1.175862026E1,2.183450609E-1,-1.680957973E-1,9.874281883E0
1.176827750E1,1.992024779E-1,-1.704886109E-1,9.883852959E0
1.177793474E1,2.039881349E-1,-1.393819153E-1,9.879067421E0
1.178759198E1,2.039881349E-1,-1.609173268E-1,9.881460190E0
1.179724927E1,1.944168359E-1,-1.848455518E-1,9.871889114E0
1.180690651E1,2.015953064E-1,-1.561316848E-1,9.879067421E0
1.181656375E1,1.896311939E-1,-1.704886109E-1,9.876674652E0
1.182622099E1,1.968096644E-1,-1.561316848E-1,9.881460190E0
1.183587823E1,1.968096644E-1,-1.561316848E-1,9.874281883E0
1.184553552E1,1.680957973E-1,-1.657029688E-1,9.879067421E0
1.185519276E1,1.728814393E-1,-1.489532143E-1,9.879067421E0
1.186485000E1,1.776670814E-1,-1.680957973E-1,9.874281883E0
1.187450724E1,1.992024779E-1,-1.609173268E-1,9.874281883E0
1.188416448E1,1.920240223E-1,-1.752742529E-1,9.881460190E0
1.189382177E1,2.087737769E-1,-1.680957973E-1,9.876674652E0
1.190347901E1,1.776670814E-1,-1.345962733E-1,9.869496346E0
1.191313625E1,1.992024779E-1,-1.633101404E-1,9.871889114E0
1.192279349E1,2.063809484E-1,-1.776670814E-1,9.867103577E0
1.193245073E1,2.063809484E-1,-1.513460279E-1,9.881460190E0
1.194210802E1,2.039881349E-1,-1.489532143E-1,9.871889114E0
1.195176526E1,2.063809484E-1,-1.561316848E-1,9.869496346E0
1.196142250E1,1.920240223E-1,-1.657029688E-1,9.879067421E0
1.197107974E1,1.872383654E-1,-1.896311939E-1,9.881460190E0
1.198073698E1,2.015953064E-1,-1.752742529E-1,9.883852959E0
1.199039422E1,1.968096644E-1,-1.537388563E-1,9.886245728E0
1.200005151E1,1.728814393E-1,-1.561316848E-1,9.883852959E0
1.200970875E1,1.896311939E-1,-1.441675574E-1,9.876674652E0
1.201936599E1,1.776670814E-1,-1.417747438E-1,9.881460190E0
1.202902323E1,1.872383654E-1,-1.513460279E-1,9.886245728E0
1.203868047E1,1.944168359E-1,-1.776670814E-1,9.886245728E0
1.204833776E1,1.800599098E-1,-1.561316848E-1,9.876674652E0
1.205799500E1,1.944168359E-1,-1.657029688E-1,9.871889114E0
1.206765224E1,2.063809484E-1,-1.393819153E-1,9.871889114E0
1.207730948E1,2.039881349E-1,-1.657029688E-1,9.874281883E0
1.208696672E1,2.015953064E-1,-1.657029688E-1,9.879067421E0
1.209662401E1,1.824527234E-1,-1.609173268E-1,9.876674652E0
1.210628125E1,1.752742529E-1,-1.609173268E-1,9.881460190E0
1.211593849E1,1.848455518E-1,-1.657029688E-1,9.864710808E0
1.212559573E1,1.848455518E-1,-1.657029688E-1,9.871889114E0
1.213525297E1,1.872383654E-1,-1.680957973E-1,9.869496346E0
1.214491026E1,1.872383654E-1,-1.968096644E-1,9.888638496E0
1.215456750E1,1.872383654E-1,-1.633101404E-1,9.876674652E0
1.216422474E1,1.776670814E-1,-1.657029688E-1,9.871889114E0
1.217388198E1,1.944168359E-1,-1.728814393E-1,9.891031265E0
1.218353922E1,1.992024779E-1,-1.561316848E-1,9.886245728E0
1.219319651E1,1.992024779E-1,-1.441675574E-1,9.881460190E0
1.220285375E1,1.944168359E-1,-1.728814393E-1,9.883852959E0
1.221251099E1,1.968096644E-1,-1.513460279E-1,9.874281883E0
1.222216823E1,1.896311939E-1,-1.657029688E-1,9.883852959E0
1.223182547E1,2.015953064E-1,-1.465603858E-1,9.879067421E0
1.224148276E1,1.896311939E-1,-1.633101404E-1,9.874281883E0
1.225114000E1,1.944168359E-1,-1.776670814E-1,9.886245728E0
1.226079724E1,1.752742529E-1,-1.704886109E-1,9.867103577E0
1.227045448E1,2.087737769E-1,-1.585244983E-1,9.893424034E0
1.228011172E1,1.680957973E-1,-1.680957973E-1,9.886245728E0
1.228976901E1,1.680957973E-1,-1.369891018E-1,9.874281883E0
1.229942625E1,1.992024779E-1,-1.704886109E-1,9.867103577E0
1.230908349E1,1.944168359E-1,-1.633101404E-1,9.879067421E0
1.231874073E1,1.992024779E-1,-1.824527234E-1,9.883852959E0
1.232839797E1,1.704886109E-1,-1.585244983E-1,9.876674652E0
1.233805526E1,1.824527234E-1,-1.800599098E-1,9.874281883E0
1.234771250E1,1.896311939E-1,-1.633101404E-1,9.881460190E0
1.235736974E1,2.039881349E-1,-1.465603858E-1,9.879067421E0
1.236702698E1,1.944168359E-1,-1.561316848E-1,9.876674652E0
1.237668427E1,1.872383654E-1,-1.752742529E-1,9.879067421E0
1.238634151E1,1.872383654E-1,-1.513460279E-1,9.886245728E0
1.239599875E1,1.896311939E-1,-1.680957973E-1,9.867103577E0
1.240565599E1,1.992024779E-1,-1.752742529E-1,9.874281883E0
1.241531323E1,1.896311939E-1,-1.465603858E-1,9.876674652E0
1.242497047E1,1.848455518E-1,-1.776670814E-1,9.876674652E0
1.243462776E1,1.920240223E-1,-1.561316848E-1,9.879067421E0
1.244428500E1,1.992024779E-1,-1.585244983E-1,9.867103577E0
1.245394224E1,1.752742529E-1,-1.441675574E-1,9.871889114E0
1.246359948E1,1.992024779E-1,-1.226321608E-1,9.893424034E0
1.247325677E1,2.015953064E-1,-1.513460279E-1,9.883852959E0
1.248291401E1,1.944168359E-1,-1.513460279E-1,9.883852959E0
1.249257125E1,1.824527234E-1,-1.728814393E-1,9.886245728E0
1.250222849E1,1.872383654E-1,-1.752742529E-1,9.891031265E0
1.251188573E1,1.872383654E-1,-1.585244983E-1,9.886245728E0
1.252154302E1,1.968096644E-1,-1.585244983E-1,9.876674652E0
1.253120026E1,1.944168359E-1,-1.633101404E-1,9.883852959E0
1.254085750E1,1.872383654E-1,-1.728814393E-1,9.883852959E0
1.255051474E1,1.800599098E-1,-1.680957973E-1,9.876674652E0
1.256017198E1,1.824527234E-1,-1.728814393E-1,9.893424034E0
1.256982927E1,1.992024779E-1,-1.465603858E-1,9.869496346E0
1.257948651E1,2.039881349E-1,-1.657029688E-1,9.883852959E0
1.258914375E1,1.896311939E-1,-1.776670814E-1,9.879067421E0
1.259880099E1,2.183450609E-1,-1.585244983E-1,9.881460190E0
1.260845823E1,1.800599098E-1,-1.322034448E-1,9.883852959E0
1.261811552E1,1.848455518E-1,-1.441675574E-1,9.881460190E0
1.262777276E1,1.872383654E-1,-1.633101404E-1,9.874281883E0
1.263743000E1,1.680957973E-1,-1.537388563E-1,9.857531548E0
1.264708724E1,1.752742529E-1,-1.728814393E-1,9.886245728E0
1.265674448E1,1.776670814E-1,-1.609173268E-1,9.883852959E0
1.266640177E1,1.920240223E-1,-1.441675574E-1,9.883852959E0
1.267605901E1,2.063809484E-1,-1.752742529E-1,9.883852959E0
1.268571625E1,1.800599098E-1,-1.609173268E-1,9.871889114E0
1.269537349E1,1.992024779E-1,-1.561316848E-1,9.888638496E0
1.270503078E1,1.800599098E-1,-1.609173268E-1,9.881460190E0
1.271468802E1,1.776670814E-1,-1.824527234E-1,9.871889114E0
1.272434526E1,1.968096644E-1,-1.585244983E-1,9.874281883E0
1.273400250E1,1.992024779E-1,-1.537388563E-1,9.879067421E0
1.274365974E1,1.824527234E-1,-1.633101404E-1,9.862318039E0
1.275331703E1,1.776670814E-1,-1.441675574E-1,9.881460190E0
1.276297427E1,1.848455518E-1,-1.489532143E-1,9.876674652E0
1.277263151E1,2.015953064E-1,-1.800599098E-1,9.871889114E0
1.278228875E1,1.752742529E-1,-1.657029688E-1,9.879067421E0
1.279194599E1,2.063809484E-1,-1.848455518E-1,9.874281883E0
1.280160328E1,1.920240223E-1,-1.537388563E-1,9.881460190E0
1.281126052E1,1.872383654E-1,-1.680957973E-1,9.871889114E0
1.282091776E1,1.920240223E-1,-1.633101404E-1,9.883852959E0
1.283057500E1,1.872383654E-1,-1.824527234E-1,9.871889114E0
1.284023229E1,1.872383654E-1,-1.776670814E-1,9.879067421E0
1.284988953E1,1.633101404E-1,-1.657029688E-1,9.867103577E0
1.285954677E1,1.992024779E-1,-1.680957973E-1,9.874281883E0
1.286920401E1,2.111666054E-1,-1.585244983E-1,9.879067421E0
1.287886125E1,2.063809484E-1,-1.728814393E-1,9.883852959E0
1.288851854E1,1.896311939E-1,-1.489532143E-1,9.879067421E0
1.289817578E1,1.920240223E-1,-1.585244983E-1,9.883852959E0
1.290783302E1,2.039881349E-1,-1.776670814E-1,9.886245728E0
1.291749026E1,1.824527234E-1,-1.824527234E-1,9.888638496E0
1.292714756E1,1.776670814E-1,-1.417747438E-1,9.867103577E0
1.293680479E1,1.944168359E-1,-1.489532143E-1,9.883852959E0
1.294646203E1,2.039881349E-1,-1.585244983E-1,9.881460190E0
1.295611927E1,1.920240223E-1,-1.393819153E-1,9.864710808E0
1.296577651E1,1.992024779E-1,-1.609173268E-1,9.874281883E0
1.297543375E1,1.704886109E-1,-1.537388563E-1,9.883852959E0
1.298509104E1,1.920240223E-1,-1.537388563E-1,9.881460190E0
1.299474828E1,1.800599098E-1,-1.609173268E-1,9.864710808E0
1.300440552E1,1.968096644E-1,-1.776670814E-1,9.879067421E0
1.301406276E1,2.015953064E-1,-1.513460279E-1,9.879067421E0
1.302372006E1,2.111666054E-1,-1.633101404E-1,9.879067421E0
1.303337729E1,2.039881349E-1,-1.417747438E-1,9.883852959E0
1.304303453E1,1.848455518E-1,-1.609173268E-1,9.874281883E0
1.305269177E1,1.968096644E-1,-1.609173268E-1,9.862318039E0
1.306234901E1,1.872383654E-1,-1.633101404E-1,9.869496346E0
1.307200630E1,2.039881349E-1,-1.609173268E-1,9.879067421E0
1.308166354E1,1.752742529E-1,-1.752742529E-1,9.862318039E0
1.309132078E1,1.944168359E-1,-1.824527234E-1,9.881460190E0
1.310097802E1,1.872383654E-1,-1.657029688E-1,9.883852959E0
1.311063532E1,2.039881349E-1,-1.513460279E-1,9.886245728E0
1.312029256E1,1.920240223E-1,-1.513460279E-1,9.876674652E0
1.312994979E1,1.920240223E-1,-1.561316848E-1,9.883852959E0
1.313960703E1,2.039881349E-1,-1.657029688E-1,9.891031265E0
1.314926427E1,1.968096644E-1,-1.489532143E-1,9.881460190E0
1.315892156E1,1.824527234E-1,-1.800599098E-1,9.881460190E0
1.316857881E1,1.896311939E-1,-1.537388563E-1,9.883852959E0
1.317823604E1,1.968096644E-1,-1.704886109E-1,9.874281883E0
1.318789328E1,1.920240223E-1,-1.537388563E-1,9.881460190E0
1.319755058E1,2.039881349E-1,-1.537388563E-1,9.879067421E0
1.320720782E1,2.039881349E-1,-1.800599098E-1,9.867103577E0
1.321686506E1,1.896311939E-1,-1.322034448E-1,9.883852959E0
1.322652229E1,1.824527234E-1,-1.537388563E-1,9.871889114E0
1.323617953E1,1.776670814E-1,-1.561316848E-1,9.874281883E0
1.324583683E1,1.824527234E-1,-1.537388563E-1,9.874281883E0
1.325549406E1,1.920240223E-1,-1.585244983E-1,9.879067421E0
1.326515131E1,1.896311939E-1,-1.657029688E-1,9.891031265E0
1.327480860E1,2.087737769E-1,-1.657029688E-1,9.874281883E0
1.328446584E1,1.920240223E-1,-1.680957973E-1,9.876674652E0
1.329412308E1,1.944168359E-1,-1.680957973E-1,9.871889114E0
1.330378032E1,1.776670814E-1,-1.537388563E-1,9.886245728E0
1.331343756E1,1.920240223E-1,-1.609173268E-1,9.883852959E0
1.332309485E1,1.800599098E-1,-1.561316848E-1,9.879067421E0
1.333275209E1,1.920240223E-1,-1.609173268E-1,9.869496346E0
1.334240932E1,1.800599098E-1,-1.561316848E-1,9.871889114E0
1.335206657E1,2.087737769E-1,-1.513460279E-1,9.871889114E0
1.336172386E1,1.824527234E-1,-1.680957973E-1,9.859925270E0
1.337138110E1,1.920240223E-1,-1.561316848E-1,9.879067421E0
1.338103834E1,1.968096644E-1,-1.561316848E-1,9.881460190E0
1.339069558E1,1.824527234E-1,-1.704886109E-1,9.883852959E0
1.340035282E1,2.039881349E-1,-1.728814393E-1,9.879067421E0
1.341001011E1,1.896311939E-1,-1.657029688E-1,9.874281883E0
1.341966735E1,1.872383654E-1,-1.824527234E-1,9.888638496E0
1.342932459E1,1.968096644E-1,-1.393819153E-1,9.893424034E0
1.343898182E1,2.015953064E-1,-1.728814393E-1,9.867103577E0
1.344863906E1,1.944168359E-1,-1.824527234E-1,9.879067421E0
1.345829636E1,1.872383654E-1,-1.489532143E-1,9.883852959E0
1.346795360E1,2.039881349E-1,-1.633101404E-1,9.883852959E0
1.347761084E1,1.800599098E-1,-1.633101404E-1,9.876674652E0
1.348726808E1,2.015953064E-1,-1.633101404E-1,9.881460190E0
1.349692537E1,1.848455518E-1,-1.633101404E-1,9.876674652E0
1.350658261E1,1.920240223E-1,-1.680957973E-1,9.874281883E0
1.351623985E1,2.039881349E-1,-1.752742529E-1,9.888638496E0
1.352589709E1,1.944168359E-1,-1.441675574E-1,9.879067421E0
1.353555438E1,1.944168359E-1,-1.800599098E-1,9.876674652E0
1.354521162E1,1.872383654E-1,-1.633101404E-1,9.869496346E0
1.355486886E1,2.015953064E-1,-1.609173268E-1,9.867103577E0
1.356452610E1,1.872383654E-1,-1.609173268E-1,9.881460190E0
1.357418339E1,2.015953064E-1,-1.537388563E-1,9.879067421E0
1.358384063E1,1.992024779E-1,-1.369891018E-1,9.869496346E0
1.359349787E1,2.063809484E-1,-1.537388563E-1,9.867103577E0
1.360315511E1,1.944168359E-1,-1.585244983E-1,9.888638496E0
1.361281235E1,1.968096644E-1,-1.752742529E-1,9.879067421E0
1.362246964E1,2.015953064E-1,-1.489532143E-1,9.876674652E0
1.363212688E1,1.848455518E-1,-1.752742529E-1,9.876674652E0
1.364178412E1,1.680957973E-1,-1.704886109E-1,9.879067421E0
1.365144136E1,1.872383654E-1,-1.657029688E-1,9.879067421E0
1.366109865E1,1.920240223E-1,-1.561316848E-1,9.867103577E0
1.367075589E1,1.800599098E-1,-1.704886109E-1,9.881460190E0
1.368041313E1,1.800599098E-1,-1.561316848E-1,9.874281883E0
1.369007037E1,2.063809484E-1,-1.776670814E-1,9.879067421E0
1.369972766E1,1.776670814E-1,-1.633101404E-1,9.876674652E0
1.370938490E1,1.848455518E-1,-1.441675574E-1,9.876674652E0
1.371904214E1,2.111666054E-1,-1.417747438E-1,9.879067421E0
1.372869938E1,1.920240223E-1,-1.848455518E-1,9.869496346E0
1.373835662E1,1.872383654E-1,-1.609173268E-1,9.859925270E0
1.374801391E1,1.920240223E-1,-1.393819153E-1,9.874281883E0
1.375767115E1,1.992024779E-1,-1.609173268E-1,9.883852959E0
1.376732839E1,1.896311939E-1,-1.609173268E-1,9.876674652E0
1.377698563E1,1.896311939E-1,-1.776670814E-1,9.876674652E0
1.378664292E1,1.944168359E-1,-1.585244983E-1,9.876674652E0
1.379630016E1,2.015953064E-1,-1.513460279E-1,9.876674652E0
1.380595740E1,1.824527234E-1,-1.680957973E-1,9.886245728E0
1.381561464E1,1.800599098E-1,-1.561316848E-1,9.869496346E0
1.382527193E1,1.920240223E-1,-1.585244983E-1,9.881460190E0
1.383492917E1,1.968096644E-1,-1.704886109E-1,9.867103577E0
1.384458641E1,2.015953064E-1,-1.657029688E-1,9.881460190E0
1.385424365E1,2.063809484E-1,-1.465603858E-1,9.869496346E0
1.386390094E1,1.776670814E-1,-1.680957973E-1,9.881460190E0
1.387355818E1,1.872383654E-1,-1.609173268E-1,9.883852959E0
1.388321542E1,1.824527234E-1,-1.657029688E-1,9.876674652E0
1.389287266E1,2.135594189E-1,-1.704886109E-1,9.881460190E0
1.390252995E1,1.896311939E-1,-1.561316848E-1,9.876674652E0
1.391218719E1,1.824527234E-1,-1.752742529E-1,9.881460190E0
1.392184443E1,1.824527234E-1,-1.609173268E-1,9.864710808E0
1.393150167E1,1.992024779E-1,-1.776670814E-1,9.869496346E0
1.394115896E1,1.968096644E-1,-1.728814393E-1,9.876674652E0
1.395081620E1,2.039881349E-1,-1.657029688E-1,9.891031265E0
1.396047344E1,1.992024779E-1,-1.680957973E-1,9.888638496E0
1.397013068E1,1.824527234E-1,-1.704886109E-1,9.874281883E0
1.397978797E1,1.920240223E-1,-1.609173268E-1,9.883852959E0
1.398944521E1,1.896311939E-1,-1.489532143E-1,9.864710808E0
1.399910245E1,2.135594189E-1,-1.345962733E-1,9.874281883E0
1.400875969E1,1.872383654E-1,-1.704886109E-1,9.883852959E0
1.401841698E1,2.087737769E-1,-1.489532143E-1,9.891031265E0
1.402807422E1,1.752742529E-1,-1.489532143E-1,9.879067421E0
1.403773146E1,1.872383654E-1,-1.824527234E-1,9.869496346E0
1.404738870E1,1.752742529E-1,-1.489532143E-1,9.883852959E0
1.405704599E1,1.944168359E-1,-1.657029688E-1,9.876674652E0
1.406670323E1,1.944168359E-1,-1.489532143E-1,9.883852959E0
1.407636047E1,1.800599098E-1,-1.537388563E-1,9.879067421E0
1.408601771E1,2.063809484E-1,-1.561316848E-1,9.871889114E0
1.409567500E1,1.944168359E-1,-1.657029688E-1,9.891031265E0
1.410533224E1,1.848455518E-1,-1.585244983E-1,9.881460190E0
1.411498948E1,1.992024779E-1,-1.776670814E-1,9.888638496E0
1.412464672E1,1.968096644E-1,-1.537388563E-1,9.879067421E0
1.413430396E1,1.752742529E-1,-1.800599098E-1,9.883852959E0
1.414396125E1,1.872383654E-1,-1.657029688E-1,9.864710808E0
1.415361849E1,1.992024779E-1,-1.489532143E-1,9.888638496E0
1.416327573E1,1.776670814E-1,-1.657029688E-1,9.886245728E0
1.417293297E1,1.776670814E-1,-1.609173268E-1,9.879067421E0
1.418259026E1,1.872383654E-1,-1.585244983E-1,9.883852959E0
1.419224750E1,1.752742529E-1,-1.776670814E-1,9.879067421E0
1.420190474E1,1.896311939E-1,-1.776670814E-1,9.881460190E0
1.421156198E1,1.776670814E-1,-1.800599098E-1,9.876674652E0
1.422121927E1,1.704886109E-1,-1.704886109E-1,9.883852959E0
1.423087651E1,1.800599098E-1,-1.680957973E-1,9.867103577E0
1.424053375E1,2.111666054E-1,-1.704886109E-1,9.871889114E0
1.425019104E1,1.944168359E-1,-1.609173268E-1,9.886245728E0
1.425984828E1,1.800599098E-1,-1.585244983E-1,9.867103577E0
1.426950552E1,1.896311939E-1,-1.513460279E-1,9.879067421E0
1.427916276E1,1.824527234E-1,-1.585244983E-1,9.874281883E0
1.428882000E1,1.824527234E-1,-1.609173268E-1,9.874281883E0
1.429847729E1,2.015953064E-1,-1.393819153E-1,9.876674652E0
1.430813453E1,1.920240223E-1,-1.920240223E-1,9.883852959E0
1.431779177E1,1.920240223E-1,-1.345962733E-1,9.871889114E0
1.432744907E1,1.872383654E-1,-1.633101404E-1,9.874281883E0
1.433710630E1,1.728814393E-1,-1.417747438E-1,9.879067421E0
1.434676354E1,1.393819153E-1,-1.537388563E-1,9.886245728E0
1.435642078E1,1.920240223E-1,-1.752742529E-1,9.891031265E0
1.436607802E1,2.015953064E-1,-1.609173268E-1,9.879067421E0
1.437573532E1,1.920240223E-1,-1.800599098E-1,9.891031265E0
1.438539256E1,2.015953064E-1,-1.776670814E-1,9.886245728E0
1.439504979E1,2.087737769E-1,-1.728814393E-1,9.876674652E0
1.440470703E1,1.896311939E-1,-1.800599098E-1,9.867103577E0
1.441436433E1,1.800599098E-1,-1.537388563E-1,9.883852959E0
1.442402156E1,1.920240223E-1,-1.848455518E-1,9.876674652E0
1.443367881E1,1.872383654E-1,-1.274178028E-1,9.869496346E0
1.444333610E1,1.992024779E-1,-1.704886109E-1,9.879067421E0
1.445299334E1,2.063809484E-1,-1.728814393E-1,9.886245728E0
1.446265058E1,1.800599098E-1,-1.728814393E-1,9.898209572E0
1.447230782E1,1.920240223E-1,-1.680957973E-1,9.895816803E0
1.448196511E1,1.872383654E-1,-1.489532143E-1,9.883852959E0
1.449162235E1,1.968096644E-1,-1.704886109E-1,9.888638496E0
1.450127959E1,1.657029688E-1,-1.441675574E-1,9.864710808E0
1.451093683E1,2.087737769E-1,-1.369891018E-1,9.883852959E0
1.452059412E1,2.039881349E-1,-1.369891018E-1,9.867103577E0
1.453025136E1,1.896311939E-1,-1.704886109E-1,9.883852959E0
1.453990860E1,1.800599098E-1,-1.633101404E-1,9.879067421E0
1.454956584E1,1.896311939E-1,-1.345962733E-1,9.864710808E0
1.455922313E1,1.824527234E-1,-1.609173268E-1,9.888638496E0
1.456888037E1,1.968096644E-1,-1.585244983E-1,9.874281883E0
1.457853761E1,2.015953064E-1,-1.417747438E-1,9.881460190E0
1.458819485E1,2.111666054E-1,-1.489532143E-1,9.883852959E0
1.459785214E1,1.992024779E-1,-1.345962733E-1,9.867103577E0
1.460750938E1,2.039881349E-1,-1.872383654E-1,9.879067421E0
1.461716662E1,1.848455518E-1,-1.704886109E-1,9.867103577E0
1.462682386E1,1.776670814E-1,-1.489532143E-1,9.867103577E0
1.463648115E1,1.944168359E-1,-1.680957973E-1,9.888638496E0
1.464613839E1,1.848455518E-1,-1.633101404E-1,9.879067421E0
1.465579563E1,1.872383654E-1,-1.417747438E-1,9.886245728E0
1.466545287E1,1.872383654E-1,-1.489532143E-1,9.879067421E0
1.467511016E1,1.944168359E-1,-1.633101404E-1,9.864710808E0
1.468476740E1,1.800599098E-1,-1.585244983E-1,9.874281883E0
1.469442464E1,1.896311939E-1,-1.896311939E-1,9.888638496E0
1.470408193E1,1.968096644E-1,-1.465603858E-1,9.879067421E0
1.471373917E1,1.944168359E-1,-1.680957973E-1,9.864710808E0
1.472339641E1,1.561316848E-1,-1.609173268E-1,9.881460190E0
1.473305365E1,1.920240223E-1,-1.680957973E-1,9.876674652E0
1.474271094E1,1.728814393E-1,-1.824527234E-1,9.879067421E0
1.475236818E1,1.824527234E-1,-1.704886109E-1,9.871889114E0
1.476202542E1,1.704886109E-1,-1.417747438E-1,9.871889114E0
1.477168266E1,1.728814393E-1,-1.585244983E-1,9.871889114E0
1.478133995E1,1.824527234E-1,-1.561316848E-1,9.891031265E0
1.479099719E1,1.920240223E-1,-1.441675574E-1,9.871889114E0
1.480065443E1,1.800599098E-1,-1.537388563E-1,9.874281883E0
1.481031167E1,1.800599098E-1,-1.609173268E-1,9.862318039E0
1.481996896E1,2.015953064E-1,-1.537388563E-1,9.888638496E0
1.482962620E1,1.848455518E-1,-1.728814393E-1,9.874281883E0
1.483928344E1,1.800599098E-1,-1.752742529E-1,9.876674652E0
1.484894068E1,1.968096644E-1,-1.441675574E-1,9.876674652E0
1.485859797E1,1.848455518E-1,-1.465603858E-1,9.888638496E0
1.486825521E1,1.776670814E-1,-1.585244983E-1,9.879067421E0
1.487791245E1,1.992024779E-1,-1.417747438E-1,9.881460190E0
1.488756969E1,1.680957973E-1,-1.704886109E-1,9.876674652E0
1.489722698E1,1.752742529E-1,-1.585244983E-1,9.864710808E0
1.490688422E1,1.800599098E-1,-1.728814393E-1,9.874281883E0
1.491654146E1,2.015953064E-1,-1.609173268E-1,9.876674652E0
1.492619870E1,1.800599098E-1,-1.561316848E-1,9.876674652E0
1.493585599E1,1.992024779E-1,-1.609173268E-1,9.879067421E0
1.494551323E1,1.872383654E-1,-1.704886109E-1,9.886245728E0
1.495517047E1,1.848455518E-1,-1.537388563E-1,9.883852959E0
1.496482776E1,1.968096644E-1,-1.776670814E-1,9.871889114E0
1.497448500E1,2.015953064E-1,-1.704886109E-1,9.879067421E0
1.498414224E1,1.752742529E-1,-2.039881349E-1,9.874281883E0
1.499379948E1,1.848455518E-1,-1.657029688E-1,9.881460190E0
1.500345677E1,1.776670814E-1,-1.513460279E-1,9.881460190E0
1.501311401E1,1.848455518E-1,-1.728814393E-1,9.883852959E0
1.502277125E1,1.968096644E-1,-1.752742529E-1,9.883852959E0
1.503242849E1,1.824527234E-1,-1.585244983E-1,9.862318039E0
1.504208578E1,1.704886109E-1,-1.704886109E-1,9.891031265E0
1.505174302E1,1.752742529E-1,-1.944168359E-1,9.879067421E0
1.506140026E1,2.039881349E-1,-1.848455518E-1,9.871889114E0
1.507105756E1,1.872383654E-1,-1.609173268E-1,9.871889114E0
1.508071479E1,2.087737769E-1,-1.633101404E-1,9.886245728E0
1.509037203E1,1.920240223E-1,-1.513460279E-1,9.867103577E0
1.510002927E1,1.776670814E-1,-1.417747438E-1,9.871889114E0
1.510968656E1,1.680957973E-1,-1.537388563E-1,9.886245728E0
1.511934381E1,2.039881349E-1,-1.393819153E-1,9.874281883E0
1.512900104E1,1.824527234E-1,-1.824527234E-1,9.876674652E0
1.513865828E1,1.800599098E-1,-1.728814393E-1,9.881460190E0
1.514831558E1,1.920240223E-1,-1.633101404E-1,9.879067421E0
1.515797282E1,2.015953064E-1,-1.609173268E-1,9.876674652E0
1.516763006E1,1.968096644E-1,-1.657029688E-1,9.879067421E0
1.517728729E1,1.848455518E-1,-1.704886109E-1,9.883852959E0
1.518694459E1,1.585244983E-1,-1.609173268E-1,9.883852959E0
1.519660182E1,1.776670814E-1,-1.752742529E-1,9.879067421E0
1.520625907E1,1.800599098E-1,-1.752742529E-1,9.881460190E0
1.521591636E1,1.944168359E-1,-1.872383654E-1,9.871889114E0
1.522557360E1,1.752742529E-1,-1.633101404E-1,9.881460190E0
1.523523084E1,1.728814393E-1,-1.561316848E-1,9.874281883E0
1.524488808E1,1.992024779E-1,-1.848455518E-1,9.891031265E0
1.525454537E1,1.968096644E-1,-1.824527234E-1,9.895816803E0
1.526420261E1,1.896311939E-1,-1.872383654E-1,9.895816803E0
1.527385985E1,1.657029688E-1,-1.441675574E-1,9.881460190E0
1.528351714E1,1.968096644E-1,-1.704886109E-1,9.869496346E0
1.529317438E1,1.944168359E-1,-1.752742529E-1,9.883852959E0
1.530283162E1,1.800599098E-1,-1.513460279E-1,9.888638496E0
1.531248886E1,1.872383654E-1,-1.680957973E-1,9.874281883E0
1.532214615E1,1.776670814E-1,-1.776670814E-1,9.876674652E0
1.533180339E1,1.776670814E-1,-1.824527234E-1,9.891031265E0
1.534146063E1,1.872383654E-1,-1.872383654E-1,9.883852959E0
1.535111787E1,1.944168359E-1,-1.561316848E-1,9.886245728E0
1.536077516E1,1.680957973E-1,-1.561316848E-1,9.881460190E0
1.537043240E1,1.872383654E-1,-1.657029688E-1,9.886245728E0
1.538008964E1,1.944168359E-1,-1.633101404E-1,9.886245728E0
1.538974688E1,1.920240223E-1,-1.513460279E-1,9.886245728E0
1.539940417E1,1.944168359E-1,-1.680957973E-1,9.871889114E0
1.540906141E1,1.800599098E-1,-1.776670814E-1,9.900602341E0
1.541871865E1,2.063809484E-1,-1.393819153E-1,9.898209572E0
1.542837589E1,2.135594189E-1,-1.537388563E-1,9.881460190E0
1.543803318E1,1.944168359E-1,-1.633101404E-1,9.886245728E0
1.544769042E1,1.537388563E-1,-1.513460279E-1,9.881460190E0
1.545734766E1,1.752742529E-1,-1.465603858E-1,9.881460190E0
1.546700495E1,1.824527234E-1,-1.441675574E-1,9.886245728E0
1.547666219E1,1.824527234E-1,-1.752742529E-1,9.864710808E0
1.548631943E1,1.824527234E-1,-1.465603858E-1,9.874281883E0
1.549597667E1,1.824527234E-1,-1.585244983E-1,9.871889114E0
1.550563396E1,1.944168359E-1,-1.657029688E-1,9.871889114E0
1.551529120E1,1.992024779E-1,-1.537388563E-1,9.874281883E0
1.552494844E1,1.968096644E-1,-1.561316848E-1,9.869496346E0
1.553460573E1,1.824527234E-1,-1.633101404E-1,9.883852959E0
1.554426297E1,1.800599098E-1,-1.728814393E-1,9.883852959E0
1.555392021E1,2.015953064E-1,-1.992024779E-1,9.879067421E0
1.556357745E1,1.441675574E-1,-1.824527234E-1,9.883852959E0
1.557323474E1,1.872383654E-1,-1.561316848E-1,9.874281883E0
1.558289198E1,1.776670814E-1,-1.537388563E-1,9.886245728E0
1.559254922E1,1.968096644E-1,-1.585244983E-1,9.883852959E0
1.560220651E1,1.752742529E-1,-1.609173268E-1,9.869496346E0
1.561186375E1,1.968096644E-1,-1.657029688E-1,9.869496346E0
1.562152099E1,1.968096644E-1,-1.704886109E-1,9.871889114E0
1.563117823E1,1.992024779E-1,-1.585244983E-1,9.879067421E0
1.564083552E1,1.728814393E-1,-1.728814393E-1,9.881460190E0
1.565049276E1,2.039881349E-1,-1.513460279E-1,9.876674652E0
1.566015000E1,1.872383654E-1,-1.489532143E-1,9.883852959E0
1.566980724E1,1.872383654E-1,-1.680957973E-1,9.871889114E0
1.567946453E1,1.848455518E-1,-1.489532143E-1,9.881460190E0
1.568912177E1,2.015953064E-1,-1.704886109E-1,9.881460190E0
1.569877901E1,2.015953064E-1,-1.537388563E-1,9.876674652E0
1.570843631E1,2.111666054E-1,-1.489532143E-1,9.859925270E0
1.571809354E1,1.848455518E-1,-1.680957973E-1,9.881460190E0
1.572775078E1,1.848455518E-1,-1.561316848E-1,9.881460190E0
1.573740802E1,1.704886109E-1,-1.752742529E-1,9.879067421E0
1.574706532E1,1.992024779E-1,-1.800599098E-1,9.881460190E0
1.575672256E1,1.824527234E-1,-1.633101404E-1,9.883852959E0
1.576637979E1,1.800599098E-1,-1.465603858E-1,9.888638496E0
1.577603709E1,2.039881349E-1,-1.680957973E-1,9.876674652E0
1.578569433E1,2.111666054E-1,-1.704886109E-1,9.881460190E0
1.579535156E1,1.968096644E-1,-1.896311939E-1,9.893424034E0
1.580500881E1,1.800599098E-1,-1.752742529E-1,9.881460190E0
1.581466610E1,1.800599098E-1,-1.609173268E-1,9.871889114E0
1.582432334E1,1.896311939E-1,-1.896311939E-1,9.871889114E0
1.583398058E1,1.704886109E-1,-1.704886109E-1,9.876674652E0
1.584363787E1,1.896311939E-1,-1.728814393E-1,9.879067421E0
1.585329511E1,2.135594189E-1,-1.633101404E-1,9.883852959E0
1.586295235E1,1.728814393E-1,-1.417747438E-1,9.871889114E0
1.587260959E1,1.848455518E-1,-1.489532143E-1,9.881460190E0
1.588226688E1,1.992024779E-1,-1.633101404E-1,9.883852959E0
1.589192412E1,1.920240223E-1,-1.680957973E-1,9.886245728E0
1.590158136E1,1.800599098E-1,-1.537388563E-1,9.862318039E0
1.591123860E1,1.752742529E-1,-1.633101404E-1,9.879067421E0
1.592089589E1,1.752742529E-1,-1.561316848E-1,9.881460190E0
1.593055313E1,1.872383654E-1,-1.393819153E-1,9.874281883E0
1.594021037E1,1.728814393E-1,-1.968096644E-1,9.869496346E0
1.594986766E1,1.920240223E-1,-1.657029688E-1,9.883852959E0
1.595952490E1,1.896311939E-1,-1.609173268E-1,9.881460190E0
1.596918214E1,1.896311939E-1,-1.657029688E-1,9.869496346E0
1.597883938E1,2.039881349E-1,-1.609173268E-1,9.871889114E0
1.598849667E1,1.944168359E-1,-1.561316848E-1,9.874281883E0
1.599815391E1,1.992024779E-1,-1.393819153E-1,9.867103577E0
1.600781115E1,1.824527234E-1,-1.680957973E-1,9.881460190E0
1.601746844E1,1.776670814E-1,-1.537388563E-1,9.879067421E0
1.602712568E1,1.944168359E-1,-1.776670814E-1,9.881460190E0
1.603678292E1,2.063809484E-1,-1.633101404E-1,9.874281883E0
1.604644016E1,1.824527234E-1,-1.513460279E-1,9.876674652E0
1.605609745E1,2.039881349E-1,-1.561316848E-1,9.871889114E0
1.606575469E1,1.680957973E-1,-1.776670814E-1,9.874281883E0
1.607541193E1,1.752742529E-1,-1.752742529E-1,9.883852959E0
1.608506922E1,1.848455518E-1,-1.680957973E-1,9.881460190E0
1.609472646E1,1.776670814E-1,-1.585244983E-1,9.881460190E0
1.610438370E1,1.896311939E-1,-1.680957973E-1,9.881460190E0
1.611404094E1,1.848455518E-1,-1.728814393E-1,9.893424034E0
1.612369823E1,1.848455518E-1,-1.609173268E-1,9.895816803E0
1.613335547E1,1.920240223E-1,-1.441675574E-1,9.888638496E0
1.614301271E1,1.800599098E-1,-1.633101404E-1,9.876674652E0
1.615267000E1,1.848455518E-1,-1.680957973E-1,9.888638496E0
1.616232724E1,1.728814393E-1,-1.513460279E-1,9.876674652E0
1.617198448E1,1.896311939E-1,-1.609173268E-1,9.886245728E0
1.618164177E1,2.015953064E-1,-1.441675574E-1,9.871889114E0
1.619129901E1,2.015953064E-1,-1.513460279E-1,9.876674652E0
1.620095625E1,1.968096644E-1,-1.824527234E-1,9.876674652E0
1.621061349E1,1.800599098E-1,-1.633101404E-1,9.859925270E0
1.622027078E1,1.872383654E-1,-1.417747438E-1,9.874281883E0
1.622992802E1,1.824527234E-1,-1.680957973E-1,9.881460190E0
1.623958526E1,1.848455518E-1,-1.776670814E-1,9.871889114E0
1.624924256E1,1.800599098E-1,-1.680957973E-1,9.879067421E0
1.625889979E1,1.585244983E-1,-1.585244983E-1,9.876674652E0
1.626855703E1,1.992024779E-1,-1.800599098E-1,9.881460190E0
1.627821427E1,2.135594189E-1,-1.489532143E-1,9.876674652E0
1.628787156E1,2.063809484E-1,-1.585244983E-1,9.871889114E0
1.629752881E1,1.657029688E-1,-1.585244983E-1,9.881460190E0
1.630718604E1,1.752742529E-1,-1.465603858E-1,9.883852959E0
1.631684334E1,1.920240223E-1,-1.585244983E-1,9.879067421E0
1.632650058E1,1.824527234E-1,-1.680957973E-1,9.869496346E0
1.633615782E1,1.896311939E-1,-1.417747438E-1,9.879067421E0
1.634581506E1,2.063809484E-1,-1.369891018E-1,9.869496346E0
1.635547235E1,1.896311939E-1,-1.728814393E-1,9.864710808E0
1.636512959E1,1.872383654E-1,-1.369891018E-1,9.869496346E0
1.637478682E1,1.848455518E-1,-1.585244983E-1,9.879067421E0
1.638444412E1,1.704886109E-1,-1.824527234E-1,9.871889114E0
1.639410136E1,1.824527234E-1,-1.561316848E-1,9.869496346E0
1.640375860E1,1.992024779E-1,-1.585244983E-1,9.876674652E0
1.641341589E1,2.039881349E-1,-1.728814393E-1,9.871889114E0
1.642307313E1,1.968096644E-1,-1.537388563E-1,9.886245728E0
1.643273037E1,1.704886109E-1,-1.728814393E-1,9.881460190E0
1.644238761E1,1.872383654E-1,-1.441675574E-1,9.867103577E0
1.645204490E1,1.752742529E-1,-1.944168359E-1,9.876674652E0
1.646170214E1,2.039881349E-1,-1.752742529E-1,9.883852959E0
1.647135938E1,1.872383654E-1,-1.800599098E-1,9.883852959E0
1.648101667E1,2.159522474E-1,-1.393819153E-1,9.874281883E0
1.649067391E1,1.944168359E-1,-1.489532143E-1,9.895816803E0
1.650033115E1,1.872383654E-1,-1.465603858E-1,9.871889114E0
1.650998844E1,1.633101404E-1,-1.752742529E-1,9.876674652E0
1.651964568E1,1.944168359E-1,-1.417747438E-1,9.893424034E0
1.652930292E1,1.728814393E-1,-1.680957973E-1,9.862318039E0
1.653896016E1,1.944168359E-1,-1.657029688E-1,9.867103577E0
1.654861745E1,1.561316848E-1,-1.537388563E-1,9.874281883E0
1.655827469E1,1.704886109E-1,-1.848455518E-1,9.891031265E0
1.656793193E1,1.704886109E-1,-1.848455518E-1,9.883852959E0
1.657758922E1,1.728814393E-1,-1.489532143E-1,9.871889114E0
1.658724646E1,1.585244983E-1,-1.537388563E-1,9.883852959E0
1.659690370E1,1.944168359E-1,-1.704886109E-1,9.864710808E0
1.660656094E1,1.872383654E-1,-1.585244983E-1,9.876674652E0
1.661621823E1,1.824527234E-1,-1.585244983E-1,9.879067421E0
1.662587547E1,1.992024779E-1,-1.776670814E-1,9.888638496E0
1.663553271E1,1.848455518E-1,-1.537388563E-1,9.879067421E0
1.664519000E1,1.752742529E-1,-1.633101404E-1,9.891031265E0
1.665484724E1,1.728814393E-1,-1.513460279E-1,9.871889114E0
1.666450448E1,1.992024779E-1,-1.513460279E-1,9.876674652E0
1.667416177E1,1.992024779E-1,-1.489532143E-1,9.881460190E0
1.668381901E1,1.800599098E-1,-1.609173268E-1,9.876674652E0
1.669347625E1,1.800599098E-1,-1.585244983E-1,9.895816803E0
1.670313349E1,1.920240223E-1,-1.728814393E-1,9.867103577E0
1.671279078E1,1.896311939E-1,-1.561316848E-1,9.869496346E0
1.672244802E1,2.087737769E-1,-1.704886109E-1,9.883852959E0
1.673210526E1,1.992024779E-1,-1.369891018E-1,9.876674652E0
1.674176256E1,2.039881349E-1,-1.657029688E-1,9.881460190E0
1.675141979E1,1.992024779E-1,-1.561316848E-1,9.874281883E0
1.676107703E1,1.896311939E-1,-1.680957973E-1,9.886245728E0
1.677073432E1,1.776670814E-1,-1.513460279E-1,9.881460190E0
1.678039157E1,1.776670814E-1,-1.417747438E-1,9.874281883E0
1.679004880E1,2.087737769E-1,-1.417747438E-1,9.859925270E0
1.679970604E1,2.039881349E-1,-1.513460279E-1,9.867103577E0
1.680936334E1,2.039881349E-1,-1.728814393E-1,9.891031265E0
1.681902058E1,2.015953064E-1,-1.824527234E-1,9.874281883E0
1.682867782E1,1.872383654E-1,-1.800599098E-1,9.879067421E0
1.683833511E1,1.992024779E-1,-1.537388563E-1,9.879067421E0
1.684799235E1,1.992024779E-1,-1.800599098E-1,9.874281883E0
1.685764959E1,2.015953064E-1,-1.728814393E-1,9.876674652E0
1.686730682E1,1.872383654E-1,-1.633101404E-1,9.883852959E0
1.687696412E1,1.992024779E-1,-1.848455518E-1,9.876674652E0
1.688662136E1,1.848455518E-1,-1.609173268E-1,9.879067421E0
1.689627860E1,1.920240223E-1,-1.657029688E-1,9.874281883E0
1.690593589E1,1.848455518E-1,-1.561316848E-1,9.881460190E0
1.691559313E1,1.776670814E-1,-1.489532143E-1,9.876674652E0
1.692525037E1,1.848455518E-1,-1.537388563E-1,9.879067421E0
1.693490766E1,1.848455518E-1,-1.657029688E-1,9.881460190E0
1.694456490E1,1.896311939E-1,-1.585244983E-1,9.876674652E0
1.695422214E1,1.848455518E-1,-1.585244983E-1,9.869496346E0
1.696387943E1,1.920240223E-1,-1.609173268E-1,9.869496346E0
1.697353667E1,1.992024779E-1,-1.704886109E-1,9.876674652E0
1.698319391E1,1.824527234E-1,-1.848455518E-1,9.881460190E0
1.699285120E1,1.896311939E-1,-1.489532143E-1,9.862318039E0
1.700250844E1,1.728814393E-1,-1.633101404E-1,9.891031265E0
1.701216568E1,1.920240223E-1,-1.633101404E-1,9.876674652E0
1.702182292E1,1.848455518E-1,-1.800599098E-1,9.874281883E0
1.703148021E1,1.800599098E-1,-1.752742529E-1,9.876674652E0
1.704113745E1,2.135594189E-1,-1.728814393E-1,9.879067421E0
1.705079469E1,1.920240223E-1,-1.800599098E-1,9.881460190E0
1.706045198E1,1.920240223E-1,-1.465603858E-1,9.876674652E0
1.707010922E1,1.944168359E-1,-1.585244983E-1,9.876674652E0
1.707976646E1,2.111666054E-1,-1.704886109E-1,9.871889114E0
1.708942375E1,1.824527234E-1,-1.776670814E-1,9.888638496E0
1.709908099E1,2.039881349E-1,-1.657029688E-1,9.876674652E0
1.710873823E1,1.920240223E-1,-1.704886109E-1,9.891031265E0
1.711839547E1,2.015953064E-1,-1.513460279E-1,9.879067421E0
1.712805276E1,2.111666054E-1,-1.609173268E-1,9.888638496E0
1.713771000E1,1.896311939E-1,-1.274178028E-1,9.871889114E0
1.714736724E1,1.920240223E-1,-1.633101404E-1,9.883852959E0
1.715702453E1,1.848455518E-1,-1.752742529E-1,9.895816803E0
1.716668177E1,1.728814393E-1,-1.728814393E-1,9.879067421E0
1.717633901E1,1.848455518E-1,-1.704886109E-1,9.876674652E0
1.718599630E1,1.920240223E-1,-1.609173268E-1,9.883852959E0
1.719565354E1,1.920240223E-1,-1.752742529E-1,9.876674652E0
1.720531078E1,1.944168359E-1,-1.633101404E-1,9.876674652E0
1.721496808E1,1.872383654E-1,-1.657029688E-1,9.871889114E0
1.722462532E1,1.968096644E-1,-1.680957973E-1,9.881460190E0
1.723428256E1,1.872383654E-1,-1.561316848E-1,9.857531548E0
1.724393979E1,2.015953064E-1,-1.465603858E-1,9.879067421E0
1.725359709E1,1.585244983E-1,-1.633101404E-1,9.881460190E0
1.726325433E1,1.872383654E-1,-1.657029688E-1,9.881460190E0
1.727291156E1,1.944168359E-1,-1.561316848E-1,9.874281883E0
1.728256886E1,1.920240223E-1,-1.489532143E-1,9.888638496E0
1.729222610E1,1.872383654E-1,-1.537388563E-1,9.876674652E0
1.730188334E1,1.800599098E-1,-1.537388563E-1,9.869496346E0
1.731154058E1,1.800599098E-1,-1.417747438E-1,9.876674652E0
1.732119787E1,1.944168359E-1,-1.776670814E-1,9.876674652E0
1.733085511E1,1.920240223E-1,-1.920240223E-1,9.886245728E0
1.734051235E1,1.776670814E-1,-1.633101404E-1,9.888638496E0
1.735016964E1,1.824527234E-1,-1.369891018E-1,9.883852959E0
1.735982688E1,1.848455518E-1,-1.944168359E-1,9.879067421E0
1.736948412E1,1.896311939E-1,-1.202393398E-1,9.869496346E0
1.737914141E1,1.704886109E-1,-1.728814393E-1,9.874281883E0
1.738879865E1,1.992024779E-1,-1.848455518E-1,9.876674652E0
1.739845589E1,2.111666054E-1,-1.633101404E-1,9.876674652E0
1.740811318E1,1.944168359E-1,-1.657029688E-1,9.883852959E0
1.741777042E1,1.800599098E-1,-1.537388563E-1,9.879067421E0
1.742742766E1,2.111666054E-1,-1.585244983E-1,9.881460190E0
1.743708495E1,1.920240223E-1,-1.609173268E-1,9.867103577E0
1.744674219E1,1.776670814E-1,-1.202393398E-1,9.883852959E0
1.745639943E1,1.800599098E-1,-1.752742529E-1,9.891031265E0
1.746605672E1,1.992024779E-1,-1.585244983E-1,9.876674652E0
1.747571396E1,2.159522474E-1,-1.633101404E-1,9.893424034E0
1.748537120E1,2.063809484E-1,-1.800599098E-1,9.883852959E0
1.749502844E1,2.015953064E-1,-1.585244983E-1,9.876674652E0
1.750468573E1,1.800599098E-1,-1.585244983E-1,9.883852959E0
1.751434297E1,1.968096644E-1,-1.561316848E-1,9.867103577E0
1.752400021E1,2.063809484E-1,-1.561316848E-1,9.888638496E0
1.753365750E1,1.896311939E-1,-1.609173268E-1,9.879067421E0
1.754331474E1,1.848455518E-1,-1.848455518E-1,9.874281883E0
1.755297198E1,1.824527234E-1,-1.657029688E-1,9.879067421E0
1.756262927E1,1.944168359E-1,-1.585244983E-1,9.874281883E0
1.757228651E1,1.968096644E-1,-1.393819153E-1,9.886245728E0
1.758194375E1,1.824527234E-1,-1.561316848E-1,9.879067421E0
1.759160104E1,2.015953064E-1,-1.513460279E-1,9.869496346E0
1.760125828E1,1.896311939E-1,-1.561316848E-1,9.886245728E0
1.761091552E1,2.087737769E-1,-1.537388563E-1,9.876674652E0
1.762057276E1,1.992024779E-1,-1.609173268E-1,9.883852959E0
1.763023006E1,1.992024779E-1,-1.585244983E-1,9.886245728E0
1.763988729E1,2.015953064E-1,-1.609173268E-1,9.874281883E0
1.764954453E1,1.752742529E-1,-1.489532143E-1,9.869496346E0
1.765920182E1,1.872383654E-1,-1.633101404E-1,9.869496346E0
1.766885906E1,1.896311939E-1,-1.776670814E-1,9.883852959E0
1.767851631E1,1.824527234E-1,-1.680957973E-1,9.881460190E0
1.768817360E1,1.704886109E-1,-1.728814393E-1,9.886245728E0
1.769783084E1,1.896311939E-1,-1.776670814E-1,9.874281883E0
1.770748808E1,1.848455518E-1,-1.585244983E-1,9.867103577E0
1.771714537E1,1.992024779E-1,-1.561316848E-1,9.871889114E0
1.772680261E1,1.944168359E-1,-1.393819153E-1,9.871889114E0
1.773645985E1,1.704886109E-1,-1.609173268E-1,9.891031265E0
1.774611714E1,1.776670814E-1,-1.513460279E-1,9.881460190E0
1.775577438E1,1.824527234E-1,-1.465603858E-1,9.881460190E0
1.776543162E1,1.896311939E-1,-1.657029688E-1,9.874281883E0
1.777508886E1,1.872383654E-1,-1.513460279E-1,9.874281883E0
1.778474615E1,1.992024779E-1,-1.585244983E-1,9.881460190E0
1.779440339E1,1.704886109E-1,-1.633101404E-1,9.883852959E0
1.780406063E1,2.039881349E-1,-1.537388563E-1,9.879067421E0
1.781371792E1,1.944168359E-1,-1.489532143E-1,9.883852959E0
1.782337516E1,1.896311939E-1,-1.680957973E-1,9.886245728E0
1.783303240E1,1.872383654E-1,-1.776670814E-1,9.864710808E0
1.784268969E1,1.968096644E-1,-1.657029688E-1,9.876674652E0
1.785234693E1,1.752742529E-1,-1.872383654E-1,9.864710808E0
1.786200417E1,1.920240223E-1,-1.441675574E-1,9.864710808E0
1.787166146E1,1.872383654E-1,-1.657029688E-1,9.871889114E0
1.788131870E1,1.776670814E-1,-1.657029688E-1,9.871889114E0
1.789097594E1,1.848455518E-1,-1.657029688E-1,9.869496346E0
1.790063323E1,2.063809484E-1,-1.657029688E-1,9.874281883E0
1.791029047E1,1.776670814E-1,-1.465603858E-1,9.869496346E0
1.791994771E1,1.896311939E-1,-1.944168359E-1,9.869496346E0
1.792960495E1,1.944168359E-1,-1.561316848E-1,9.881460190E0
1.793926224E1,1.848455518E-1,-1.585244983E-1,9.879067421E0
1.794891948E1,1.824527234E-1,-1.441675574E-1,9.874281883E0
1.795857672E1,1.848455518E-1,-1.441675574E-1,9.879067421E0
1.796823401E1,1.896311939E-1,-1.585244983E-1,9.886245728E0
1.797789125E1,1.872383654E-1,-1.441675574E-1,9.874281883E0
1.798754849E1,1.968096644E-1,-1.585244983E-1,9.883852959E0
1.799720578E1,1.776670814E-1,-1.585244983E-1,9.876674652E0
1.800686302E1,1.968096644E-1,-1.680957973E-1,9.876674652E0
1.801652026E1,1.609173268E-1,-1.489532143E-1,9.864710808E0
1.802617756E1,1.776670814E-1,-1.513460279E-1,9.881460190E0
1.803583479E1,1.872383654E-1,-1.776670814E-1,9.883852959E0
1.804549203E1,1.968096644E-1,-1.489532143E-1,9.876674652E0
1.805514933E1,1.920240223E-1,-1.561316848E-1,9.874281883E0
1.806480656E1,1.944168359E-1,-1.776670814E-1,9.881460190E0
1.807446380E1,1.896311939E-1,-1.585244983E-1,9.886245728E0
1.808412110E1,1.920240223E-1,-1.513460279E-1,9.886245728E0
1.809377834E1,1.800599098E-1,-1.537388563E-1,9.886245728E0
1.810343558E1,1.776670814E-1,-1.704886109E-1,9.876674652E0
1.811309282E1,1.872383654E-1,-1.465603858E-1,9.871889114E0
1.812275011E1,1.896311939E-1,-1.585244983E-1,9.871889114E0
1.813240735E1,1.992024779E-1,-1.657029688E-1,9.886245728E0
1.814206459E1,2.039881349E-1,-1.800599098E-1,9.871889114E0
1.815172188E1,1.872383654E-1,-1.657029688E-1,9.879067421E0
1.816137912E1,1.944168359E-1,-1.728814393E-1,9.879067421E0
1.817103636E1,1.896311939E-1,-1.561316848E-1,9.879067421E0
1.818069365E1,1.680957973E-1,-1.728814393E-1,9.867103577E0
1.819035089E1,1.896311939E-1,-1.513460279E-1,9.876674652E0
1.820000813E1,1.896311939E-1,-1.585244983E-1,9.886245728E0
1.820966542E1,1.872383654E-1,-1.369891018E-1,9.881460190E0
1.821932266E1,2.039881349E-1,-1.609173268E-1,9.876674652E0
1.822897990E1,1.872383654E-1,-1.369891018E-1,9.874281883E0
1.823863719E1,1.800599098E-1,-1.537388563E-1,9.883852959E0
1.824829443E1,1.896311939E-1,-1.393819153E-1,9.881460190E0
1.825795167E1,1.824527234E-1,-1.728814393E-1,9.867103577E0
1.826760896E1,1.896311939E-1,-1.537388563E-1,9.891031265E0
1.827726620E1,1.968096644E-1,-1.585244983E-1,9.879067421E0
1.828692344E1,2.111666054E-1,-1.609173268E-1,9.881460190E0
1.829658073E1,1.944168359E-1,-1.465603858E-1,9.876674652E0
1.830623797E1,1.968096644E-1,-1.680957973E-1,9.871889114E0
1.831589521E1,1.944168359E-1,-1.657029688E-1,9.874281883E0
1.832555250E1,1.872383654E-1,-1.489532143E-1,9.864710808E0
1.833520974E1,1.896311939E-1,-1.752742529E-1,9.871889114E0
1.834486698E1,1.920240223E-1,-1.728814393E-1,9.879067421E0
1.835452422E1,1.968096644E-1,-1.776670814E-1,9.871889114E0
1.836418151E1,1.824527234E-1,-1.369891018E-1,9.859925270E0
1.837383875E1,2.159522474E-1,-1.776670814E-1,9.881460190E0
1.838349599E1,1.776670814E-1,-1.609173268E-1,9.883852959E0
1.839315328E1,1.776670814E-1,-1.633101404E-1,9.881460190E0
1.840281052E1,1.896311939E-1,-1.585244983E-1,9.876674652E0
1.841246776E1,1.800599098E-1,-1.657029688E-1,9.888638496E0
1.842212506E1,1.800599098E-1,-1.896311939E-1,9.869496346E0
1.843178229E1,1.920240223E-1,-1.776670814E-1,9.874281883E0
1.844143953E1,1.920240223E-1,-1.537388563E-1,9.883852959E0
1.845109682E1,1.776670814E-1,-1.465603858E-1,9.871889114E0
1.846075406E1,1.896311939E-1,-1.752742529E-1,9.891031265E0
1.847041131E1,1.896311939E-1,-1.489532143E-1,9.886245728E0
1.848006860E1,1.728814393E-1,-1.393819153E-1,9.876674652E0
1.848972584E1,1.680957973E-1,-1.513460279E-1,9.881460190E0
1.849938308E1,1.872383654E-1,-1.633101404E-1,9.867103577E0
1.850904037E1,1.920240223E-1,-1.561316848E-1,9.879067421E0
1.851869761E1,1.944168359E-1,-1.465603858E-1,9.883852959E0
1.852835485E1,1.896311939E-1,-1.680957973E-1,9.888638496E0
1.853801214E1,1.752742529E-1,-1.728814393E-1,9.871889114E0
1.854766938E1,1.824527234E-1,-1.800599098E-1,9.876674652E0
1.855732662E1,1.896311939E-1,-1.537388563E-1,9.869496346E0
1.856698391E1,1.824527234E-1,-1.465603858E-1,9.876674652E0
1.857664115E1,1.968096644E-1,-1.800599098E-1,9.886245728E0
1.858629839E1,1.609173268E-1,-1.561316848E-1,9.876674652E0
1.859595563E1,1.776670814E-1,-1.633101404E-1,9.871889114E0
1.860561292E1,1.752742529E-1,-1.728814393E-1,9.874281883E0
1.861527016E1,2.015953064E-1,-1.657029688E-1,9.881460190E0
1.862492745E1,1.704886109E-1,-1.824527234E-1,9.864710808E0
1.863458469E1,1.824527234E-1,-1.585244983E-1,9.871889114E0
1.864424193E1,1.872383654E-1,-1.489532143E-1,9.891031265E0
1.865389917E1,1.968096644E-1,-1.441675574E-1,9.881460190E0
1.866355646E1,1.776670814E-1,-1.752742529E-1,9.867103577E0
1.867321370E1,1.824527234E-1,-1.489532143E-1,9.871889114E0
1.868287094E1,1.944168359E-1,-1.800599098E-1,9.879067421E0
1.869252823E1,1.848455518E-1,-1.417747438E-1,9.876674652E0
1.870218547E1,1.824527234E-1,-1.704886109E-1,9.871889114E0
1.871184271E1,1.704886109E-1,-1.704886109E-1,9.874281883E0
1.872150000E1,1.704886109E-1,-1.513460279E-1,9.869496346E0
1.873115724E1,2.015953064E-1,-1.465603858E-1,9.874281883E0
1.874081448E1,1.704886109E-1,-1.633101404E-1,9.874281883E0
1.875047177E1,1.776670814E-1,-1.704886109E-1,9.869496346E0
1.876012901E1,1.920240223E-1,-1.633101404E-1,9.888638496E0
1.876978625E1,1.752742529E-1,-1.944168359E-1,9.871889114E0
1.877944354E1,1.824527234E-1,-1.657029688E-1,9.881460190E0
1.878910078E1,1.872383654E-1,-1.561316848E-1,9.893424034E0
1.879875802E1,2.039881349E-1,-1.848455518E-1,9.888638496E0
1.880841532E1,2.111666054E-1,-1.465603858E-1,9.874281883E0
1.881807256E1,1.992024779E-1,-1.680957973E-1,9.879067421E0
1.882772979E1,1.920240223E-1,-1.657029688E-1,9.876674652E0
1.883738709E1,2.063809484E-1,-1.728814393E-1,9.869496346E0
1.884704433E1,1.920240223E-1,-1.561316848E-1,9.891031265E0
1.885670156E1,1.920240223E-1,-1.728814393E-1,9.876674652E0
1.886635886E1,1.752742529E-1,-1.298106313E-1,9.881460190E0
1.887601610E1,1.992024779E-1,-1.513460279E-1,9.862318039E0
1.888567334E1,2.087737769E-1,-1.728814393E-1,9.869496346E0
1.889533063E1,1.920240223E-1,-1.441675574E-1,9.881460190E0
1.890498787E1,1.968096644E-1,-1.441675574E-1,9.893424034E0
1.891464511E1,1.920240223E-1,-1.537388563E-1,9.886245728E0
1.892430240E1,2.039881349E-1,-1.609173268E-1,9.876674652E0
1.893395964E1,1.800599098E-1,-1.441675574E-1,9.886245728E0
1.894361688E1,1.944168359E-1,-1.704886109E-1,9.881460190E0
1.895327417E1,1.872383654E-1,-1.417747438E-1,9.874281883E0
1.896293141E1,1.848455518E-1,-1.417747438E-1,9.876674652E0
1.897258865E1,1.920240223E-1,-1.561316848E-1,9.879067421E0
1.898224594E1,2.039881349E-1,-1.704886109E-1,9.888638496E0
1.899190318E1,2.135594189E-1,-1.369891018E-1,9.869496346E0
1.900156042E1,1.896311939E-1,-1.800599098E-1,9.871889114E0
1.901121771E1,2.015953064E-1,-1.633101404E-1,9.871889114E0
1.902087495E1,1.896311939E-1,-1.537388563E-1,9.876674652E0
1.903053219E1,1.800599098E-1,-1.752742529E-1,9.883852959E0
1.904018948E1,1.896311939E-1,-1.657029688E-1,9.886245728E0
1.904984672E1,1.513460279E-1,-1.537388563E-1,9.876674652E0
1.905950396E1,1.944168359E-1,-1.704886109E-1,9.871889114E0
1.906916125E1,1.633101404E-1,-1.633101404E-1,9.876674652E0
1.907881849E1,1.920240223E-1,-1.369891018E-1,9.867103577E0
1.908847573E1,1.872383654E-1,-1.609173268E-1,9.881460190E0
1.909813302E1,1.800599098E-1,-1.752742529E-1,9.876674652E0
1.910779026E1,1.968096644E-1,-1.680957973E-1,9.879067421E0
1.911744750E1,1.848455518E-1,-1.585244983E-1,9.886245728E0
1.912710479E1,1.728814393E-1,-1.680957973E-1,9.881460190E0
1.913676203E1,1.872383654E-1,-1.345962733E-1,9.895816803E0
1.914641927E1,1.872383654E-1,-1.752742529E-1,9.886245728E0
1.915607651E1,1.944168359E-1,-1.513460279E-1,9.874281883E0
1.916573381E1,1.920240223E-1,-1.704886109E-1,9.874281883E0
1.917539104E1,1.872383654E-1,-1.537388563E-1,9.893424034E0
1.918504828E1,1.680957973E-1,-1.513460279E-1,9.888638496E0
1.919470558E1,1.872383654E-1,-1.872383654E-1,9.883852959E0
1.920436282E1,1.824527234E-1,-1.657029688E-1,9.881460190E0
1.921402011E1,1.920240223E-1,-1.537388563E-1,9.888638496E0
1.922367735E1,1.800599098E-1,-1.728814393E-1,9.886245728E0
1.923333459E1,1.968096644E-1,-1.609173268E-1,9.876674652E0
1.924299188E1,1.776670814E-1,-1.633101404E-1,9.869496346E0
1.925264912E1,1.968096644E-1,-1.633101404E-1,9.883852959E0
1.926230636E1,1.920240223E-1,-1.776670814E-1,9.879067421E0
1.927196365E1,1.848455518E-1,-1.441675574E-1,9.867103577E0
1.928162089E1,1.824527234E-1,-1.752742529E-1,9.879067421E0
1.929127813E1,1.728814393E-1,-1.728814393E-1,9.883852959E0
1.930093542E1,1.704886109E-1,-1.752742529E-1,9.886245728E0
1.931059266E1,1.728814393E-1,-1.537388563E-1,9.883852959E0
1.932024990E1,2.063809484E-1,-1.704886109E-1,9.871889114E0
1.932990719E1,1.896311939E-1,-1.657029688E-1,9.881460190E0
1.933956443E1,2.015953064E-1,-1.585244983E-1,9.879067421E0
1.934922167E1,1.824527234E-1,-1.489532143E-1,9.883852959E0
1.935887896E1,1.992024779E-1,-1.489532143E-1,9.869496346E0
1.936853620E1,1.968096644E-1,-1.537388563E-1,9.886245728E0
1.937819344E1,1.752742529E-1,-1.561316848E-1,9.881460190E0
1.938785073E1,1.585244983E-1,-1.561316848E-1,9.874281883E0
1.939750797E1,1.800599098E-1,-1.561316848E-1,9.867103577E0
1.940716521E1,1.800599098E-1,-1.561316848E-1,9.888638496E0
1.941682250E1,1.680957973E-1,-1.800599098E-1,9.881460190E0
1.942647974E1,1.848455518E-1,-1.752742529E-1,9.871889114E0
1.943613698E1,1.872383654E-1,-1.585244983E-1,9.886245728E0
1.944579427E1,1.633101404E-1,-1.585244983E-1,9.874281883E0
1.945545151E1,2.015953064E-1,-1.465603858E-1,9.876674652E0
1.946510875E1,1.776670814E-1,-1.585244983E-1,9.879067421E0
1.947476604E1,1.824527234E-1,-1.609173268E-1,9.891031265E0
1.948442328E1,1.824527234E-1,-1.537388563E-1,9.886245728E0
1.949408052E1,1.992024779E-1,-1.657029688E-1,9.855138779E0
1.950373782E1,2.111666054E-1,-1.776670814E-1,9.871889114E0
1.951339506E1,1.776670814E-1,-1.657029688E-1,9.881460190E0
1.952305229E1,1.896311939E-1,-1.537388563E-1,9.891031265E0
1.953270959E1,1.992024779E-1,-1.704886109E-1,9.881460190E0
1.954236683E1,1.896311939E-1,-1.680957973E-1,9.871889114E0
1.955202406E1,1.872383654E-1,-1.537388563E-1,9.879067421E0
1.956168136E1,1.896311939E-1,-1.680957973E-1,9.883852959E0
1.957133860E1,1.800599098E-1,-1.704886109E-1,9.883852959E0
1.958099584E1,1.848455518E-1,-1.585244983E-1,9.893424034E0
1.959065313E1,1.680957973E-1,-1.728814393E-1,9.871889114E0
1.960031037E1,1.728814393E-1,-1.537388563E-1,9.864710808E0
1.960996761E1,1.848455518E-1,-1.393819153E-1,9.881460190E0
1.961962490E1,1.800599098E-1,-1.704886109E-1,9.876674652E0
1.962928214E1,1.992024779E-1,-1.585244983E-1,9.876674652E0
1.963893938E1,1.848455518E-1,-1.441675574E-1,9.881460190E0
1.964859667E1,2.039881349E-1,-1.226321608E-1,9.876674652E0
