"Time (s)","Gyroscope x (rad/s)","Gyroscope y (rad/s)","Gyroscope z (rad/s)"
5.154406500E-2,7.635590737E-4,-6.872031372E-4,6.108472589E-4
6.120130500E-2,-4.581354442E-4,-7.635590737E-5,6.108472589E-4
7.085854400E-2,-4.581354442E-4,-7.635590737E-5,6.108472589E-4
8.051578400E-2,1.527118147E-4,-7.635590737E-5,-0.000000000E0
9.017302300E-2,1.527118147E-4,-7.635590737E-5,6.108472589E-4
9.983026300E-2,1.527118147E-4,-7.635590737E-5,-0.000000000E0
1.094875020E-1,7.635590737E-4,1.145338640E-3,-0.000000000E0
1.191446900E-1,1.527118147E-4,5.344913807E-4,-0.000000000E0
1.288019300E-1,1.527118147E-4,5.344913807E-4,-6.108472589E-4
1.384591690E-1,1.527118147E-4,5.344913807E-4,-0.000000000E0
1.481164090E-1,-4.581354442E-4,5.344913807E-4,6.108472589E-4
1.577736480E-1,7.635590737E-4,-7.635590737E-5,6.108472589E-4
1.674308880E-1,7.635590737E-4,-7.635590737E-5,6.108472589E-4
1.770881270E-1,1.527118147E-4,5.344913807E-4,6.108472589E-4
1.867453670E-1,1.527118147E-4,1.145338640E-3,-0.000000000E0
1.964026070E-1,1.527118147E-4,5.344913807E-4,-0.000000000E0
2.060598460E-1,1.527118147E-4,-7.635590737E-5,-0.000000000E0
2.157170340E-1,1.527118147E-4,5.344913807E-4,-0.000000000E0
2.253742730E-1,-4.581354442E-4,5.344913807E-4,6.108472589E-4
2.350315130E-1,-4.581354442E-4,5.344913807E-4,-6.108472589E-4
2.446887520E-1,1.527118147E-4,5.344913807E-4,-6.108472589E-4
2.543459920E-1,-4.581354442E-4,5.344913807E-4,-0.000000000E0
2.640032320E-1,-4.581354442E-4,1.145338640E-3,-0.000000000E0
2.736604710E-1,-4.581354442E-4,1.145338640E-3,-0.000000000E0
2.833177110E-1,1.527118147E-4,5.344913807E-4,6.108472589E-4
2.929749500E-1,1.527118147E-4,5.344913807E-4,6.108472589E-4
3.026321900E-1,-4.581354442E-4,-7.635590737E-5,6.108472589E-4
3.122894300E-1,1.527118147E-4,-7.635590737E-5,-6.108472589E-4
3.219466170E-1,1.527118147E-4,5.344913807E-4,-0.000000000E0
3.316038570E-1,1.527118147E-4,-7.635590737E-5,6.108472589E-4
3.412610960E-1,1.527118147E-4,5.344913807E-4,6.108472589E-4
3.509183360E-1,1.527118147E-4,-7.635590737E-5,-0.000000000E0
3.605755750E-1,7.635590737E-4,-7.635590737E-5,6.108472589E-4
3.702328150E-1,1.527118147E-4,5.344913807E-4,6.108472589E-4
3.798900550E-1,7.635590737E-4,-7.635590737E-5,6.108472589E-4
3.895472940E-1,-4.581354442E-4,-7.635590737E-5,-0.000000000E0
3.992045340E-1,-4.581354442E-4,-7.635590737E-5,-0.000000000E0
4.088617730E-1,1.527118147E-4,5.344913807E-4,-0.000000000E0
4.185190130E-1,1.527118147E-4,5.344913807E-4,6.108472589E-4
4.281762520E-1,-4.581354442E-4,-7.635590737E-5,1.221694518E-3
4.378334400E-1,1.527118147E-4,-7.635590737E-5,6.108472589E-4
4.474906800E-1,1.527118147E-4,5.344913807E-4,6.108472589E-4
4.571479190E-1,7.635590737E-4,5.344913807E-4,6.108472589E-4
4.668051590E-1,7.635590737E-4,-7.635590737E-5,6.108472589E-4
4.764623980E-1,1.527118147E-4,-7.635590737E-5,6.108472589E-4
4.861196380E-1,1.527118147E-4,-7.635590737E-5,6.108472589E-4
4.957768770E-1,1.527118147E-4,5.344913807E-4,6.108472589E-4
5.054341170E-1,1.527118147E-4,5.344913807E-4,-0.000000000E0
5.150913570E-1,1.527118147E-4,-7.635590737E-5,-6.108472589E-4
5.247485960E-1,-4.581354442E-4,-7.635590737E-5,-6.108472589E-4
5.344058360E-1,1.527118147E-4,-7.635590737E-5,-0.000000000E0
5.440630230E-1,1.527118147E-4,-7.635590737E-5,-6.108472589E-4
5.537202630E-1,1.527118147E-4,-7.635590737E-5,-6.108472589E-4
5.633775020E-1,7.635590737E-4,5.344913807E-4,-0.000000000E0
5.730347420E-1,7.635590737E-4,5.344913807E-4,-0.000000000E0
5.826919820E-1,1.527118147E-4,5.344913807E-4,-0.000000000E0
5.923492210E-1,-4.581354442E-4,-7.635590737E-5,6.108472589E-4
6.020064610E-1,-4.581354442E-4,-7.635590737E-5,6.108472589E-4
6.116637000E-1,1.527118147E-4,-7.635590737E-5,6.108472589E-4
6.213209400E-1,1.527118147E-4,-7.635590737E-5,-0.000000000E0
6.309781800E-1,1.527118147E-4,-6.872031372E-4,-0.000000000E0
6.406354190E-1,-4.581354442E-4,-7.635590737E-5,-6.108472589E-4
6.502926070E-1,-4.581354442E-4,-7.635590737E-5,-0.000000000E0
6.599498460E-1,1.527118147E-4,5.344913807E-4,6.108472589E-4
6.696070860E-1,-4.581354442E-4,5.344913807E-4,-0.000000000E0
6.792643250E-1,1.527118147E-4,-7.635590737E-5,-6.108472589E-4
6.889215650E-1,1.527118147E-4,-7.635590737E-5,-0.000000000E0
6.985788050E-1,1.527118147E-4,-7.635590737E-5,-0.000000000E0
7.082360440E-1,7.635590737E-4,-7.635590737E-5,-0.000000000E0
7.178932840E-1,1.527118147E-4,-7.635590737E-5,6.108472589E-4
7.275505230E-1,1.527118147E-4,-7.635590737E-5,-0.000000000E0
7.372077630E-1,-4.581354442E-4,-6.872031372E-4,6.108472589E-4
7.468650020E-1,1.527118147E-4,-7.635590737E-5,-0.000000000E0
7.565221900E-1,7.635590737E-4,-7.635590737E-5,-0.000000000E0
7.661794820E-1,1.527118147E-4,5.344913807E-4,-0.000000000E0
7.758366690E-1,-4.581354442E-4,-7.635590737E-5,6.108472589E-4
7.854939090E-1,-4.581354442E-4,-6.872031372E-4,6.108472589E-4
7.951511480E-1,1.527118147E-4,5.344913807E-4,6.108472589E-4
8.048083880E-1,1.527118147E-4,-7.635590737E-5,6.108472589E-4
8.144656270E-1,7.635590737E-4,-7.635590737E-5,-0.000000000E0
8.241228670E-1,7.635590737E-4,-7.635590737E-5,-0.000000000E0
8.337801070E-1,1.527118147E-4,5.344913807E-4,6.108472589E-4
8.434373460E-1,1.527118147E-4,-7.635590737E-5,-0.000000000E0
8.530945860E-1,-4.581354442E-4,-7.635590737E-5,6.108472589E-4
8.627518250E-1,1.527118147E-4,-7.635590737E-5,-0.000000000E0
8.724090650E-1,1.527118147E-4,-7.635590737E-5,-0.000000000E0
8.820663050E-1,1.527118147E-4,-7.635590737E-5,-0.000000000E0
8.917234920E-1,-4.581354442E-4,-7.635590737E-5,-0.000000000E0
9.013807320E-1,1.527118147E-4,-7.635590737E-5,-0.000000000E0
9.110379710E-1,-4.581354442E-4,5.344913807E-4,6.108472589E-4
9.206952110E-1,-1.068982761E-3,5.344913807E-4,-0.000000000E0
9.303524500E-1,1.527118147E-4,5.344913807E-4,6.108472589E-4
9.400096900E-1,1.527118147E-4,-7.635590737E-5,-0.000000000E0
9.496669300E-1,1.527118147E-4,-7.635590737E-5,6.108472589E-4
9.593241690E-1,-4.581354442E-4,-7.635590737E-5,6.108472589E-4
9.689814090E-1,1.527118147E-4,-7.635590737E-5,-0.000000000E0
9.786386480E-1,-4.581354442E-4,5.344913807E-4,-6.108472589E-4
9.882958880E-1,1.527118147E-4,5.344913807E-4,-0.000000000E0
9.979531270E-1,1.527118147E-4,-7.635590737E-5,-0.000000000E0
1.007610367E0,1.527118147E-4,-6.872031372E-4,-6.108472589E-4
1.017267555E0,1.527118147E-4,5.344913807E-4,-0.000000000E0
1.026924794E0,1.527118147E-4,-7.635590737E-5,-0.000000000E0
1.036582034E0,7.635590737E-4,5.344913807E-4,-0.000000000E0
1.046239273E0,1.527118147E-4,-7.635590737E-5,6.108472589E-4
1.055896513E0,-4.581354442E-4,5.344913807E-4,-0.000000000E0
1.065553752E0,-4.581354442E-4,5.344913807E-4,6.108472589E-4
1.075210992E0,1.527118147E-4,-7.635590737E-5,6.108472589E-4
1.084868232E0,1.527118147E-4,5.344913807E-4,6.108472589E-4
1.094525471E0,1.527118147E-4,5.344913807E-4,6.108472589E-4
1.104182711E0,1.527118147E-4,5.344913807E-4,6.108472589E-4
1.113839950E0,7.635590737E-4,-7.635590737E-5,-0.000000000E0
1.123497190E0,1.527118147E-4,-6.872031372E-4,-0.000000000E0
1.133154430E0,1.527118147E-4,5.344913807E-4,-0.000000000E0
1.142811617E0,1.527118147E-4,5.344913807E-4,6.108472589E-4
1.152468857E0,1.527118147E-4,-7.635590737E-5,-0.000000000E0
1.162126096E0,-4.581354442E-4,5.344913807E-4,-0.000000000E0
1.171783336E0,-4.581354442E-4,5.344913807E-4,-0.000000000E0
1.181440575E0,-4.581354442E-4,-7.635590737E-5,-0.000000000E0
1.191097815E0,-4.581354442E-4,-7.635590737E-5,-0.000000000E0
1.200755055E0,1.527118147E-4,-7.635590737E-5,-0.000000000E0
1.210412294E0,1.527118147E-4,5.344913807E-4,-0.000000000E0
1.220069534E0,-4.581354442E-4,-7.635590737E-5,6.108472589E-4
1.229726773E0,1.527118147E-4,-7.635590737E-5,-0.000000000E0
1.239384013E0,7.635590737E-4,-7.635590737E-5,-0.000000000E0
1.249041252E0,7.635590737E-4,5.344913807E-4,-0.000000000E0
1.258698492E0,1.527118147E-4,-7.635590737E-5,-0.000000000E0
1.268355732E0,1.527118147E-4,5.344913807E-4,-0.000000000E0
1.278012919E0,1.527118147E-4,5.344913807E-4,6.108472589E-4
1.287670159E0,-4.581354442E-4,-7.635590737E-5,-0.000000000E0
1.297327398E0,7.635590737E-4,-6.872031372E-4,-0.000000000E0
1.306984638E0,7.635590737E-4,-6.872031372E-4,-0.000000000E0
1.316641877E0,7.635590737E-4,5.344913807E-4,-0.000000000E0
1.326299117E0,7.635590737E-4,-7.635590737E-5,-0.000000000E0
1.335956357E0,-4.581354442E-4,5.344913807E-4,-0.000000000E0
1.345613596E0,-4.581354442E-4,5.344913807E-4,6.108472589E-4
1.355270836E0,1.527118147E-4,-7.635590737E-5,6.108472589E-4
1.364928075E0,1.527118147E-4,5.344913807E-4,6.108472589E-4
1.374585315E0,1.527118147E-4,5.344913807E-4,6.108472589E-4
1.384242555E0,1.527118147E-4,-6.872031372E-4,-0.000000000E0
1.393899794E0,7.635590737E-4,-7.635590737E-5,6.108472589E-4
1.403557034E0,-4.581354442E-4,-7.635590737E-5,-0.000000000E0
1.413214221E0,7.635590737E-4,-7.635590737E-5,-0.000000000E0
1.422871461E0,1.527118147E-4,5.344913807E-4,6.108472589E-4
1.432528700E0,1.527118147E-4,-7.635590737E-5,6.108472589E-4
1.442185940E0,1.527118147E-4,-7.635590737E-5,-0.000000000E0
1.451843180E0,-4.581354442E-4,-6.872031372E-4,6.108472589E-4
1.461500419E0,-1.068982761E-3,-7.635590737E-5,6.108472589E-4
1.471157659E0,1.527118147E-4,-6.872031372E-4,-0.000000000E0
1.480814898E0,1.527118147E-4,5.344913807E-4,6.108472589E-4
1.490472138E0,7.635590737E-4,5.344913807E-4,6.108472589E-4
1.500129377E0,1.527118147E-4,5.344913807E-4,1.221694518E-3
1.509786617E0,-4.581354442E-4,5.344913807E-4,6.108472589E-4
1.519443857E0,-4.581354442E-4,-7.635590737E-5,-0.000000000E0
1.529101096E0,1.527118147E-4,-6.872031372E-4,-0.000000000E0
1.538758336E0,7.635590737E-4,-7.635590737E-5,-0.000000000E0
1.548415523E0,7.635590737E-4,-7.635590737E-5,-0.000000000E0
1.558072763E0,-4.581354442E-4,5.344913807E-4,-0.000000000E0
1.567730002E0,1.527118147E-4,-6.872031372E-4,6.108472589E-4
1.577387242E0,1.527118147E-4,-7.635590737E-5,6.108472589E-4
1.587044482E0,1.527118147E-4,-7.635590737E-5,6.108472589E-4
1.596701721E0,1.527118147E-4,-7.635590737E-5,6.108472589E-4
1.606358961E0,1.527118147E-4,-6.872031372E-4,6.108472589E-4
1.616016200E0,1.527118147E-4,-6.872031372E-4,6.108472589E-4
1.625673440E0,-4.581354442E-4,-6.872031372E-4,6.108472589E-4
1.635330680E0,1.527118147E-4,-7.635590737E-5,-0.000000000E0
1.644987919E0,1.527118147E-4,5.344913807E-4,-0.000000000E0
1.654645159E0,1.527118147E-4,-7.635590737E-5,-6.108472589E-4
1.664302398E0,1.527118147E-4,-7.635590737E-5,-0.000000000E0
1.673959638E0,-4.581354442E-4,-7.635590737E-5,-0.000000000E0
1.683616877E0,1.527118147E-4,-7.635590737E-5,6.108472589E-4
1.693274065E0,7.635590737E-4,-7.635590737E-5,-0.000000000E0
1.702931305E0,1.527118147E-4,-7.635590737E-5,-0.000000000E0
1.712588544E0,7.635590737E-4,-7.635590737E-5,6.108472589E-4
1.722245784E0,7.635590737E-4,-7.635590737E-5,6.108472589E-4
1.731903023E0,-4.581354442E-4,-6.872031372E-4,6.108472589E-4
1.741560263E0,1.527118147E-4,-7.635590737E-5,6.108472589E-4
1.751217502E0,1.527118147E-4,-7.635590737E-5,6.108472589E-4
1.760874742E0,1.527118147E-4,-7.635590737E-5,6.108472589E-4
1.770531982E0,1.527118147E-4,-7.635590737E-5,6.108472589E-4
1.780189221E0,1.527118147E-4,-6.872031372E-4,-0.000000000E0
1.789846461E0,-4.581354442E-4,-1.298050396E-3,-0.000000000E0
1.799503700E0,1.527118147E-4,-7.635590737E-5,6.108472589E-4
1.809160940E0,1.527118147E-4,-7.635590737E-5,6.108472589E-4
1.818818180E0,1.527118147E-4,-7.635590737E-5,-0.000000000E0
1.828475419E0,1.527118147E-4,5.344913807E-4,-0.000000000E0
1.838132659E0,1.527118147E-4,-7.635590737E-5,6.108472589E-4
1.847789898E0,1.527118147E-4,-7.635590737E-5,6.108472589E-4
1.857447086E0,1.527118147E-4,5.344913807E-4,-0.000000000E0
1.867104325E0,1.527118147E-4,-7.635590737E-5,6.108472589E-4
1.876761565E0,-4.581354442E-4,-7.635590737E-5,6.108472589E-4
1.886418805E0,-4.581354442E-4,-7.635590737E-5,6.108472589E-4
1.896076044E0,1.527118147E-4,-7.635590737E-5,6.108472589E-4
1.905733284E0,1.527118147E-4,-7.635590737E-5,6.108472589E-4
1.915390523E0,-4.581354442E-4,-7.635590737E-5,-6.108472589E-4
1.925047763E0,-4.581354442E-4,-7.635590737E-5,6.108472589E-4
1.934705002E0,1.527118147E-4,-6.872031372E-4,-0.000000000E0
1.944362242E0,1.527118147E-4,-6.872031372E-4,-6.108472589E-4
1.954019482E0,1.527118147E-4,-7.635590737E-5,6.108472589E-4
1.963676721E0,-4.581354442E-4,-7.635590737E-5,6.108472589E-4
1.973333961E0,-4.581354442E-4,-6.872031372E-4,6.108472589E-4
1.982991200E0,-4.581354442E-4,5.344913807E-4,6.108472589E-4
1.992648388E0,1.527118147E-4,-7.635590737E-5,6.108472589E-4
2.002305627E0,7.635590737E-4,-7.635590737E-5,-0.000000000E0
2.011962867E0,7.635590737E-4,5.344913807E-4,-0.000000000E0
2.021620107E0,7.635590737E-4,5.344913807E-4,6.108472589E-4
2.031277346E0,7.635590737E-4,-7.635590737E-5,-6.108472589E-4
2.040934586E0,-4.581354442E-4,5.344913807E-4,6.108472589E-4
2.050591825E0,-4.581354442E-4,-6.872031372E-4,1.221694518E-3
2.060249065E0,1.527118147E-4,-7.635590737E-5,6.108472589E-4
2.069906305E0,7.635590737E-4,5.344913807E-4,-0.000000000E0
2.079563544E0,1.527118147E-4,-7.635590737E-5,6.108472589E-4
2.089220784E0,1.527118147E-4,-6.872031372E-4,-0.000000000E0
2.098878023E0,1.527118147E-4,-7.635590737E-5,-0.000000000E0
2.108535263E0,1.527118147E-4,-7.635590737E-5,-0.000000000E0
2.118192502E0,-4.581354442E-4,-7.635590737E-5,-0.000000000E0
2.127849742E0,-4.581354442E-4,-7.635590737E-5,-0.000000000E0
2.137506982E0,-4.581354442E-4,-7.635590737E-5,6.108472589E-4
2.147164221E0,1.527118147E-4,-7.635590737E-5,-0.000000000E0
2.156821461E0,1.527118147E-4,-6.872031372E-4,-0.000000000E0
2.166478648E0,1.527118147E-4,-6.872031372E-4,6.108472589E-4
2.176135888E0,-4.581354442E-4,-7.635590737E-5,-0.000000000E0
2.185793127E0,-4.581354442E-4,-7.635590737E-5,-0.000000000E0
2.195450367E0,-4.581354442E-4,-6.872031372E-4,-0.000000000E0
2.205107607E0,1.527118147E-4,-7.635590737E-5,6.108472589E-4
2.214764846E0,1.527118147E-4,-7.635590737E-5,6.108472589E-4
2.224422086E0,1.527118147E-4,-7.635590737E-5,6.108472589E-4
2.234079325E0,1.527118147E-4,-7.635590737E-5,-0.000000000E0
2.243736565E0,-4.581354442E-4,5.344913807E-4,-0.000000000E0
2.253393805E0,-4.581354442E-4,-7.635590737E-5,6.108472589E-4
2.263051044E0,-4.581354442E-4,-7.635590737E-5,6.108472589E-4
2.272708284E0,-4.581354442E-4,-7.635590737E-5,-0.000000000E0
2.282365523E0,1.527118147E-4,-7.635590737E-5,-0.000000000E0
2.292022763E0,-4.581354442E-4,-6.872031372E-4,-0.000000000E0
2.301680002E0,-4.581354442E-4,-7.635590737E-5,-0.000000000E0
2.311337242E0,-4.581354442E-4,-6.872031372E-4,-0.000000000E0
2.320994482E0,1.527118147E-4,-7.635590737E-5,6.108472589E-4
2.330651721E0,1.527118147E-4,-7.635590737E-5,-0.000000000E0
2.340308961E0,1.527118147E-4,5.344913807E-4,6.108472589E-4
2.349966148E0,7.635590737E-4,-7.635590737E-5,6.108472589E-4
2.359623388E0,1.527118147E-4,-7.635590737E-5,-0.000000000E0
2.369280627E0,1.527118147E-4,-7.635590737E-5,6.108472589E-4
2.378937867E0,7.635590737E-4,-7.635590737E-5,-0.000000000E0
2.388595107E0,7.635590737E-4,-7.635590737E-5,6.108472589E-4
2.398252346E0,1.527118147E-4,-7.635590737E-5,-0.000000000E0
2.407909586E0,1.527118147E-4,-7.635590737E-5,-0.000000000E0
2.417566825E0,1.527118147E-4,-6.872031372E-4,1.221694518E-3
2.427224065E0,1.527118147E-4,-6.872031372E-4,6.108472589E-4
2.436881305E0,1.527118147E-4,-7.635590737E-5,6.108472589E-4
2.446538544E0,-4.581354442E-4,-7.635590737E-5,-0.000000000E0
2.456195784E0,1.527118147E-4,5.344913807E-4,6.108472589E-4
2.465853023E0,1.527118147E-4,5.344913807E-4,-6.108472589E-4
2.475510263E0,1.527118147E-4,-6.872031372E-4,-0.000000000E0
2.485167502E0,7.635590737E-4,-7.635590737E-5,-6.108472589E-4
2.494824742E0,1.527118147E-4,-7.635590737E-5,-0.000000000E0
2.504481982E0,1.527118147E-4,-7.635590737E-5,6.108472589E-4
2.514139169E0,7.635590737E-4,-6.872031372E-4,-0.000000000E0
2.523796409E0,1.527118147E-4,-6.872031372E-4,-0.000000000E0
2.533453648E0,7.635590737E-4,-7.635590737E-5,-6.108472589E-4
2.543110888E0,7.635590737E-4,5.344913807E-4,-0.000000000E0
2.552768127E0,1.527118147E-4,-7.635590737E-5,6.108472589E-4
2.562425367E0,-4.581354442E-4,-7.635590737E-5,-0.000000000E0
2.572082607E0,1.527118147E-4,-6.872031372E-4,-0.000000000E0
2.581739846E0,1.527118147E-4,-7.635590737E-5,-0.000000000E0
2.591397086E0,-4.581354442E-4,-7.635590737E-5,6.108472589E-4
2.601054325E0,1.527118147E-4,-7.635590737E-5,-0.000000000E0
2.610711565E0,-4.581354442E-4,-7.635590737E-5,6.108472589E-4
2.620368805E0,1.527118147E-4,5.344913807E-4,-0.000000000E0
2.630026044E0,1.527118147E-4,-7.635590737E-5,-0.000000000E0
2.639683284E0,-4.581354442E-4,-7.635590737E-5,-0.000000000E0
2.649340523E0,1.527118147E-4,-7.635590737E-5,-0.000000000E0
2.658997763E0,7.635590737E-4,-7.635590737E-5,-0.000000000E0
2.668655002E0,7.635590737E-4,5.344913807E-4,6.108472589E-4
2.678312242E0,7.635590737E-4,5.344913807E-4,-0.000000000E0
2.687969482E0,1.527118147E-4,-7.635590737E-5,-1.221694518E-3
2.697626721E0,1.527118147E-4,-7.635590737E-5,-6.108472589E-4
2.707283909E0,-4.581354442E-4,-6.872031372E-4,-0.000000000E0
2.716941148E0,7.635590737E-4,-7.635590737E-5,-0.000000000E0
2.726598388E0,7.635590737E-4,-7.635590737E-5,-0.000000000E0
2.736255627E0,1.527118147E-4,-7.635590737E-5,-0.000000000E0
2.745912867E0,-4.581354442E-4,-7.635590737E-5,-0.000000000E0
2.755570107E0,-4.581354442E-4,-7.635590737E-5,-0.000000000E0
2.765227346E0,1.527118147E-4,-7.635590737E-5,-0.000000000E0
2.774884586E0,-4.581354442E-4,-6.872031372E-4,-0.000000000E0
2.784541825E0,7.635590737E-4,-6.872031372E-4,6.108472589E-4
2.794199065E0,-4.581354442E-4,-7.635590737E-5,-0.000000000E0
2.803856305E0,1.527118147E-4,-7.635590737E-5,6.108472589E-4
2.813513544E0,1.527118147E-4,-7.635590737E-5,-0.000000000E0
2.823170784E0,1.527118147E-4,-7.635590737E-5,-0.000000000E0
2.832828023E0,1.527118147E-4,-6.872031372E-4,-6.108472589E-4
2.842485263E0,1.527118147E-4,-7.635590737E-5,-6.108472589E-4
2.852142502E0,1.527118147E-4,-7.635590737E-5,-6.108472589E-4
2.861799742E0,-6.108472589E-4,7.635590737E-5,-1.527118147E-4
2.871456982E0,-6.108472589E-4,0.000000000E0,-1.527118147E-4
2.881114221E0,-6.108472589E-4,0.000000000E0,-1.527118147E-4
2.890771461E0,0.000000000E0,0.000000000E0,-1.527118147E-4
2.900428700E0,-6.108472589E-4,-6.108472589E-4,5.344913807E-4
2.910085940E0,0.000000000E0,0.000000000E0,-7.635590737E-5
2.919743180E0,0.000000000E0,0.000000000E0,-7.635590737E-5
2.929400419E0,0.000000000E0,0.000000000E0,-7.635590737E-5
2.939057607E0,0.000000000E0,0.000000000E0,-6.872031372E-4
2.948714846E0,0.000000000E0,0.000000000E0,-7.635590737E-5
2.958372086E0,0.000000000E0,0.000000000E0,-6.872031372E-4
2.968029325E0,0.000000000E0,0.000000000E0,-6.872031372E-4
2.977686565E0,0.000000000E0,-6.108472589E-4,1.145338640E-3
2.987343805E0,-6.108472589E-4,-6.108472589E-4,-7.635590737E-5
2.997001044E0,6.108472589E-4,0.000000000E0,5.344913807E-4
3.006658284E0,-6.108472589E-4,-6.108472589E-4,-7.635590737E-5
3.016315523E0,0.000000000E0,6.108472589E-4,-0.000000000E0
3.025972763E0,0.000000000E0,6.108472589E-4,-0.000000000E0
3.035630002E0,0.000000000E0,7.635590737E-5,6.108472589E-4
3.045287242E0,0.000000000E0,-5.344913807E-4,-0.000000000E0
3.054944482E0,0.000000000E0,-5.344913807E-4,6.108472589E-4
3.064601721E0,0.000000000E0,7.635590737E-5,-0.000000000E0
3.074258961E0,7.635590737E-5,7.635590737E-5,-6.108472589E-4
3.083916200E0,7.635590737E-5,7.635590737E-5,-6.108472589E-4
3.093573440E0,-6.108472589E-4,7.635590737E-5,-0.000000000E0
3.103230680E0,-5.344913807E-4,-5.344913807E-4,0.000000000E0
3.112887919E0,-5.344913807E-4,7.635590737E-5,0.000000000E0
3.122545159E0,-5.344913807E-4,7.635590737E-5,6.108472589E-4
3.132202346E0,-5.344913807E-4,6.872031372E-4,0.000000000E0
3.141859586E0,6.872031372E-4,7.635590737E-5,0.000000000E0
3.151516825E0,7.635590737E-5,7.635590737E-5,0.000000000E0
3.161174065E0,-5.344913807E-4,7.635590737E-5,0.000000000E0
3.170831305E0,7.635590737E-5,7.635590737E-5,-6.108472589E-4
3.180488544E0,7.635590737E-5,6.872031372E-4,6.108472589E-4
3.190145784E0,7.635590737E-5,7.635590737E-5,6.108472589E-4
3.199803023E0,-5.344913807E-4,7.635590737E-5,6.108472589E-4
3.209460263E0,7.635590737E-5,7.635590737E-5,0.000000000E0
3.219117502E0,7.635590737E-5,-5.344913807E-4,0.000000000E0
3.228774742E0,7.635590737E-5,7.635590737E-5,6.108472589E-4
3.238431982E0,7.635590737E-5,7.635590737E-5,6.108472589E-4
3.248089221E0,7.635590737E-4,7.635590737E-5,-6.108472589E-4
3.257746461E0,7.635590737E-5,7.635590737E-5,0.000000000E0
3.267403700E0,-5.344913807E-4,7.635590737E-5,1.221694518E-3
3.277060940E0,7.635590737E-4,7.635590737E-5,0.000000000E0
3.286718180E0,1.527118147E-4,7.635590737E-5,0.000000000E0
3.296375419E0,1.527118147E-4,-5.344913807E-4,-6.108472589E-4
3.306032659E0,1.527118147E-4,-5.344913807E-4,-0.000000000E0
3.315689898E0,-5.344913807E-4,-1.145338640E-3,-0.000000000E0
3.325347138E0,1.527118147E-4,7.635590737E-5,6.108472589E-4
3.335004377E0,-5.344913807E-4,7.635590737E-5,-0.000000000E0
3.344661617E0,1.527118147E-4,7.635590737E-5,-6.108472589E-4
3.354318857E0,-4.581354442E-4,6.872031372E-4,-0.000000000E0
3.363976044E0,7.635590737E-4,7.635590737E-5,6.108472589E-4
3.373633336E0,1.527118147E-4,6.872031372E-4,6.108472589E-4
3.383290523E0,1.527118147E-4,7.635590737E-5,6.108472589E-4
3.392947763E0,7.635590737E-4,7.635590737E-5,6.108472589E-4
3.402605002E0,1.527118147E-4,7.635590737E-5,-0.000000000E0
3.412262242E0,1.527118147E-4,7.635590737E-5,-7.635590737E-5
3.421919482E0,1.527118147E-4,6.872031372E-4,-7.635590737E-5
3.431576721E0,1.527118147E-4,7.635590737E-5,5.344913807E-4
3.441233961E0,1.527118147E-4,6.872031372E-4,-7.635590737E-5
3.450891200E0,-4.581354442E-4,7.635590737E-5,-7.635590737E-5
3.460548440E0,1.527118147E-4,7.635590737E-5,-7.635590737E-5
3.470205680E0,1.527118147E-4,7.635590737E-5,-7.635590737E-5
3.479862919E0,1.527118147E-4,7.635590737E-5,-7.635590737E-5
3.489520159E0,-4.581354442E-4,7.635590737E-5,-7.635590737E-5
3.499177398E0,1.527118147E-4,7.635590737E-5,5.344913807E-4
3.508834638E0,1.527118147E-4,7.635590737E-5,-7.635590737E-5
3.518491877E0,-5.344913807E-4,-5.344913807E-4,5.344913807E-4
3.528149117E0,1.527118147E-4,-5.344913807E-4,-7.635590737E-5
3.537806357E0,1.527118147E-4,7.635590737E-5,5.344913807E-4
3.547463596E0,7.635590737E-5,7.635590737E-5,-7.635590737E-5
3.557120836E0,7.635590737E-5,7.635590737E-5,-7.635590737E-5
3.566778075E0,7.635590737E-5,-5.344913807E-4,5.344913807E-4
3.576435315E0,7.635590737E-5,-5.344913807E-4,-7.635590737E-5
3.586092555E0,7.635590737E-5,7.635590737E-5,4.581354442E-4
3.595749794E0,7.635590737E-5,7.635590737E-5,-1.527118147E-4
3.605407034E0,-5.344913807E-4,7.635590737E-5,-1.527118147E-4
3.615064273E0,-5.344913807E-4,7.635590737E-5,4.581354442E-4
3.624721513E0,-5.344913807E-4,7.635590737E-5,-7.635590737E-4
3.634378752E0,7.635590737E-5,7.635590737E-5,-1.527118147E-4
3.644035940E0,6.872031372E-4,7.635590737E-5,-7.635590737E-4
3.653693232E0,7.635590737E-5,6.872031372E-4,-1.527118147E-4
3.663350419E0,-5.344913807E-4,1.221694518E-3,-1.527118147E-4
3.673007659E0,-5.344913807E-4,6.108472589E-4,-1.527118147E-4
3.682664898E0,7.635590737E-5,-6.108472589E-4,4.581354442E-4
3.692322138E0,7.635590737E-5,0.000000000E0,-1.527118147E-4
3.701979377E0,7.635590737E-5,0.000000000E0,-1.527118147E-4
3.711636617E0,7.635590737E-5,-6.108472589E-4,4.581354442E-4
3.721293857E0,6.872031372E-4,-6.108472589E-4,-1.527118147E-4
3.730951096E0,7.635590737E-5,-6.108472589E-4,-7.635590737E-4
3.740608336E0,7.635590737E-5,0.000000000E0,-1.527118147E-4
3.750265575E0,7.635590737E-5,6.108472589E-4,4.581354442E-4
3.759922815E0,7.635590737E-5,0.000000000E0,-1.527118147E-4
3.769580055E0,-5.344913807E-4,-6.108472589E-4,-7.635590737E-4
3.779237294E0,-5.344913807E-4,0.000000000E0,-1.527118147E-4
3.788894534E0,-5.344913807E-4,0.000000000E0,4.581354442E-4
3.798551773E0,-5.344913807E-4,0.000000000E0,4.581354442E-4
3.808209013E0,-5.344913807E-4,0.000000000E0,-1.527118147E-4
3.817866252E0,7.635590737E-5,-6.108472589E-4,-1.527118147E-4
3.827523492E0,7.635590737E-5,-6.108472589E-4,-7.635590737E-4
3.837180732E0,-5.344913807E-4,0.000000000E0,-1.527118147E-4
3.846837971E0,7.635590737E-5,-6.108472589E-4,-1.527118147E-4
3.856495211E0,7.635590737E-5,6.108472589E-4,4.581354442E-4
3.866152450E0,7.635590737E-4,0.000000000E0,1.068982761E-3
3.875809690E0,7.635590737E-5,0.000000000E0,4.581354442E-4
3.885466930E0,-5.344913807E-4,0.000000000E0,-1.527118147E-4
3.895124169E0,7.635590737E-5,0.000000000E0,4.581354442E-4
3.904781409E0,7.635590737E-5,0.000000000E0,-1.527118147E-4
3.914438648E0,-5.344913807E-4,0.000000000E0,-1.527118147E-4
3.924095888E0,1.527118147E-4,0.000000000E0,4.581354442E-4
3.933753127E0,1.527118147E-4,-6.108472589E-4,4.581354442E-4
3.943410367E0,1.527118147E-4,0.000000000E0,4.581354442E-4
3.953067607E0,1.527118147E-4,0.000000000E0,-1.527118147E-4
3.962724846E0,-5.344913807E-4,-5.344913807E-4,-1.527118147E-4
3.972382034E0,-5.344913807E-4,-5.344913807E-4,-1.527118147E-4
3.982039273E0,1.527118147E-4,7.635590737E-5,4.581354442E-4
3.991696513E0,1.527118147E-4,7.635590737E-5,-1.527118147E-4
4.001353752E0,1.527118147E-4,6.872031372E-4,-1.527118147E-4
4.011010992E0,7.635590737E-4,6.872031372E-4,-1.527118147E-4
4.020668232E0,7.635590737E-4,7.635590737E-5,-1.527118147E-4
4.030325471E0,1.527118147E-4,7.635590737E-5,-7.635590737E-4
4.039982711E0,1.527118147E-4,-5.344913807E-4,-1.527118147E-4
4.049639950E0,1.527118147E-4,-5.344913807E-4,1.068982761E-3
4.059297190E0,1.527118147E-4,-5.344913807E-4,4.581354442E-4
4.068954430E0,1.527118147E-4,6.872031372E-4,-1.527118147E-4
4.078611669E0,-4.581354442E-4,-5.344913807E-4,-1.527118147E-4
4.088268909E0,1.527118147E-4,-5.344913807E-4,4.581354442E-4
4.097926148E0,-4.581354442E-4,-5.344913807E-4,-1.527118147E-4
4.107583388E0,1.527118147E-4,7.635590737E-5,4.581354442E-4
4.117240627E0,1.527118147E-4,7.635590737E-5,4.581354442E-4
4.126897867E0,1.527118147E-4,-5.344913807E-4,-1.527118147E-4
4.136555107E0,-4.581354442E-4,6.872031372E-4,-1.527118147E-4
4.146212346E0,1.527118147E-4,7.635590737E-5,-1.527118147E-4
4.155869586E0,1.527118147E-4,7.635590737E-5,-1.527118147E-4
4.165526825E0,-4.581354442E-4,7.635590737E-5,-7.635590737E-4
4.175184065E0,1.527118147E-4,7.635590737E-5,-1.527118147E-4
4.184841305E0,1.527118147E-4,7.635590737E-5,4.581354442E-4
4.194498544E0,-4.581354442E-4,-5.344913807E-4,-1.527118147E-4
4.204155784E0,1.527118147E-4,7.635590737E-5,4.581354442E-4
4.213813023E0,-4.581354442E-4,-5.344913807E-4,-1.527118147E-4
4.223470263E0,1.527118147E-4,-5.344913807E-4,-7.635590737E-4
4.233127502E0,1.527118147E-4,7.635590737E-5,-1.527118147E-4
4.242784742E0,1.527118147E-4,7.635590737E-5,4.581354442E-4
4.252441982E0,7.635590737E-4,-5.344913807E-4,4.581354442E-4
4.262099221E0,-4.581354442E-4,7.635590737E-5,4.581354442E-4
4.271756461E0,1.527118147E-4,7.635590737E-5,-1.527118147E-4
4.281413700E0,7.635590737E-4,7.635590737E-5,-7.635590737E-4
4.291070940E0,1.527118147E-4,-5.344913807E-4,-7.635590737E-4
4.300728180E0,7.635590737E-4,1.527118147E-4,-1.527118147E-4
4.310385419E0,1.527118147E-4,1.527118147E-4,-1.527118147E-4
4.320042659E0,1.527118147E-4,-4.581354442E-4,-1.527118147E-4
4.329699846E0,1.527118147E-4,-4.581354442E-4,4.581354442E-4
4.339357138E0,7.635590737E-4,1.527118147E-4,4.581354442E-4
4.349014325E0,7.635590737E-4,7.635590737E-4,1.068982761E-3
4.358671617E0,-5.344913807E-4,7.635590737E-4,4.581354442E-4
4.368328857E0,-5.344913807E-4,1.527118147E-4,-7.635590737E-4
4.377986044E0,1.527118147E-4,7.635590737E-4,-1.527118147E-4
4.387643284E0,7.635590737E-5,-4.581354442E-4,-1.527118147E-4
4.397300523E0,7.635590737E-5,1.527118147E-4,-1.527118147E-4
4.406957763E0,-5.344913807E-4,1.527118147E-4,4.581354442E-4
4.416615002E0,7.635590737E-5,1.527118147E-4,4.581354442E-4
4.426272242E0,-5.344913807E-4,-4.581354442E-4,4.581354442E-4
4.435929482E0,7.635590737E-5,1.527118147E-4,4.581354442E-4
4.445586721E0,7.635590737E-5,1.527118147E-4,4.581354442E-4
4.455243961E0,7.635590737E-5,1.527118147E-4,1.068982761E-3
4.464901200E0,7.635590737E-5,7.635590737E-4,-1.527118147E-4
4.474558440E0,7.635590737E-5,-4.581354442E-4,4.581354442E-4
4.484215680E0,6.872031372E-4,-4.581354442E-4,-1.527118147E-4
4.493872919E0,-5.344913807E-4,7.635590737E-4,-1.527118147E-4
4.503530159E0,-5.344913807E-4,7.635590737E-4,-1.527118147E-4
4.513187398E0,7.635590737E-5,7.635590737E-4,4.581354442E-4
4.522844638E0,-5.344913807E-4,1.527118147E-4,4.581354442E-4
4.532501877E0,-5.344913807E-4,-4.581354442E-4,4.581354442E-4
4.542159117E0,-1.145338640E-3,-4.581354442E-4,4.581354442E-4
4.551816357E0,-5.344913807E-4,1.527118147E-4,4.581354442E-4
4.561473596E0,7.635590737E-5,7.635590737E-4,-1.527118147E-4
4.571130836E0,-5.344913807E-4,7.635590737E-4,4.581354442E-4
4.580788075E0,7.635590737E-5,-4.581354442E-4,-1.527118147E-4
4.590445315E0,-5.344913807E-4,1.527118147E-4,3.817795368E-4
4.600102555E0,-5.344913807E-4,-4.581354442E-4,-8.399150101E-4
4.609759794E0,7.635590737E-5,1.527118147E-4,3.817795368E-4
4.619417034E0,7.635590737E-5,7.635590737E-4,-2.290677221E-4
4.629074273E0,-5.344913807E-4,1.527118147E-4,-8.399150101E-4
4.638731513E0,-5.344913807E-4,-5.344913807E-4,-2.290677221E-4
4.648388752E0,-5.344913807E-4,7.635590737E-5,-2.290677221E-4
4.658045992E0,-5.344913807E-4,7.635590737E-5,-8.399150101E-4
4.667703232E0,7.635590737E-5,7.635590737E-5,-2.290677221E-4
4.677360471E0,7.635590737E-5,-5.344913807E-4,3.817795368E-4
4.687017711E0,-5.344913807E-4,6.872031372E-4,-2.290677221E-4
4.696674950E0,-5.344913807E-4,6.872031372E-4,-2.290677221E-4
4.706332190E0,-5.344913807E-4,7.635590737E-5,3.817795368E-4
4.715989430E0,7.635590737E-5,7.635590737E-5,-2.290677221E-4
4.725646669E0,1.527118147E-4,7.635590737E-5,3.817795368E-4
4.735303909E0,1.527118147E-4,7.635590737E-5,9.926267667E-4
4.744961148E0,7.635590737E-4,6.872031372E-4,-2.290677221E-4
4.754618388E0,7.635590737E-4,7.635590737E-5,-2.290677221E-4
4.764275627E0,1.527118147E-4,-5.344913807E-4,-2.290677221E-4
4.773932867E0,1.527118147E-4,7.635590737E-5,-2.290677221E-4
4.783590107E0,-4.581354442E-4,6.872031372E-4,3.054236295E-4
4.793247346E0,-4.581354442E-4,6.872031372E-4,-3.054236295E-4
4.802904586E0,-1.068982761E-3,7.635590737E-5,3.054236295E-4
4.812561825E0,1.527118147E-4,7.635590737E-5,3.054236295E-4
4.822219065E0,2.290677221E-4,7.635590737E-5,-3.054236295E-4
4.831876305E0,2.290677221E-4,6.108472589E-4,-8.399150101E-4
4.841533544E0,2.290677221E-4,0.000000000E0,-2.290677221E-4
4.851190784E0,2.290677221E-4,-6.108472589E-4,-8.399150101E-4
4.860848023E0,-3.817795368E-4,0.000000000E0,-2.290677221E-4
4.870505263E0,-3.817795368E-4,6.108472589E-4,3.817795368E-4
4.880162502E0,2.290677221E-4,6.108472589E-4,-2.290677221E-4
4.889819742E0,2.290677221E-4,0.000000000E0,3.817795368E-4
4.899476982E0,-3.817795368E-4,0.000000000E0,3.817795368E-4
4.909134221E0,-3.817795368E-4,0.000000000E0,-2.290677221E-4
4.918791461E0,2.290677221E-4,-6.108472589E-4,3.817795368E-4
4.928448700E0,-3.817795368E-4,-0.000000000E0,-2.290677221E-4
4.938105940E0,-3.817795368E-4,-0.000000000E0,-2.290677221E-4
4.947763180E0,-3.817795368E-4,-0.000000000E0,-8.399150101E-4
4.957420419E0,2.290677221E-4,-0.000000000E0,-2.290677221E-4
4.967077659E0,2.290677221E-4,-6.108472589E-4,-2.290677221E-4
4.976734898E0,-3.817795368E-4,6.108472589E-4,3.817795368E-4
4.986392086E0,-9.926267667E-4,-0.000000000E0,3.817795368E-4
4.996049325E0,9.162708884E-4,-0.000000000E0,3.817795368E-4
5.005706565E0,2.290677221E-4,-0.000000000E0,3.817795368E-4
5.015363805E0,-9.926267667E-4,-0.000000000E0,-2.290677221E-4
5.025021044E0,-3.817795368E-4,-7.635590737E-5,-2.290677221E-4
5.034678284E0,-9.926267667E-4,-7.635590737E-5,-2.290677221E-4
5.044335523E0,-3.817795368E-4,-7.635590737E-5,9.926267667E-4
5.053992763E0,9.162708884E-4,5.344913807E-4,-2.290677221E-4
5.063650002E0,3.054236295E-4,-6.872031372E-4,3.817795368E-4
5.073307242E0,3.054236295E-4,-7.635590737E-5,3.817795368E-4
5.082964482E0,3.054236295E-4,-7.635590737E-5,-2.290677221E-4
5.092621721E0,-3.817795368E-4,-7.635590737E-5,3.817795368E-4
5.102278961E0,3.054236295E-4,-7.635590737E-5,3.817795368E-4
5.111936200E0,3.054236295E-4,-6.872031372E-4,3.817795368E-4
5.121593440E0,9.162708884E-4,-6.872031372E-4,-2.290677221E-4
5.131250680E0,3.054236295E-4,-7.635590737E-5,-2.290677221E-4
5.140907919E0,3.054236295E-4,-7.635590737E-5,-2.290677221E-4
5.150565159E0,3.054236295E-4,-7.635590737E-5,-2.290677221E-4
5.160222398E0,3.054236295E-4,-6.872031372E-4,3.817795368E-4
5.169879638E0,3.054236295E-4,-7.635590737E-5,9.926267667E-4
5.179536877E0,-3.054236295E-4,-6.872031372E-4,-2.290677221E-4
5.189194117E0,3.054236295E-4,-6.872031372E-4,-2.290677221E-4
5.198851357E0,3.054236295E-4,-6.872031372E-4,-2.290677221E-4
5.208508596E0,-3.054236295E-4,-7.635590737E-5,-2.290677221E-4
5.218165836E0,-3.054236295E-4,-7.635590737E-5,3.817795368E-4
5.227823075E0,3.054236295E-4,-7.635590737E-5,-2.290677221E-4
5.237480315E0,9.162708884E-4,-6.872031372E-4,-2.290677221E-4
5.247137555E0,3.054236295E-4,-0.000000000E0,-8.399150101E-4
5.256794794E0,3.054236295E-4,-0.000000000E0,-2.290677221E-4
5.266452034E0,-3.054236295E-4,-6.108472589E-4,-2.290677221E-4
5.276109273E0,3.054236295E-4,-0.000000000E0,-2.290677221E-4
5.285766513E0,-3.054236295E-4,-6.108472589E-4,-2.290677221E-4
5.295423752E0,3.054236295E-4,-0.000000000E0,3.817795368E-4
5.305080992E0,-3.054236295E-4,-0.000000000E0,3.817795368E-4
5.314738232E0,-9.926267667E-4,0.000000000E0,-2.290677221E-4
5.324395471E0,-3.054236295E-4,0.000000000E0,-8.399150101E-4
5.334052711E0,-3.817795368E-4,1.221694518E-3,-8.399150101E-4
5.343709950E0,3.054236295E-4,0.000000000E0,-2.290677221E-4
5.353367190E0,3.054236295E-4,0.000000000E0,-2.290677221E-4
5.363024430E0,9.162708884E-4,0.000000000E0,-2.290677221E-4
5.372681669E0,-3.817795368E-4,-5.344913807E-4,-2.290677221E-4
5.382338909E0,-3.817795368E-4,6.872031372E-4,3.817795368E-4
5.391996148E0,8.399150101E-4,7.635590737E-5,3.817795368E-4
5.401653388E0,-3.817795368E-4,7.635590737E-5,-2.290677221E-4
5.411310627E0,2.290677221E-4,7.635590737E-5,3.817795368E-4
5.420967867E0,2.290677221E-4,6.872031372E-4,9.926267667E-4
5.430625107E0,2.290677221E-4,7.635590737E-5,3.817795368E-4
5.440282346E0,2.290677221E-4,7.635590737E-5,-2.290677221E-4
5.449939586E0,2.290677221E-4,7.635590737E-5,3.817795368E-4
5.459596825E0,-3.817795368E-4,7.635590737E-5,3.817795368E-4
5.469254065E0,-3.817795368E-4,7.635590737E-5,-2.290677221E-4
5.478911305E0,2.290677221E-4,-5.344913807E-4,-2.290677221E-4
5.488568544E0,1.450762269E-3,-5.344913807E-4,-2.290677221E-4
5.498225784E0,8.399150101E-4,7.635590737E-5,-8.399150101E-4
5.507883023E0,-3.817795368E-4,-5.344913807E-4,-8.399150101E-4
5.517540263E0,-3.817795368E-4,7.635590737E-5,3.817795368E-4
5.527197502E0,8.399150101E-4,7.635590737E-5,-2.290677221E-4
5.536854742E0,2.290677221E-4,7.635590737E-5,-8.399150101E-4
5.546511982E0,-3.817795368E-4,7.635590737E-5,-8.399150101E-4
5.556169221E0,2.290677221E-4,7.635590737E-5,-2.290677221E-4
5.565826461E0,2.290677221E-4,-5.344913807E-4,-2.290677221E-4
5.575483700E0,2.290677221E-4,6.872031372E-4,-1.527118147E-4
5.585140940E0,2.290677221E-4,7.635590737E-5,-1.527118147E-4
5.594798180E0,-3.817795368E-4,7.635590737E-5,-1.527118147E-4
5.604455419E0,-3.817795368E-4,7.635590737E-5,-1.527118147E-4
5.614112659E0,2.290677221E-4,6.872031372E-4,-7.635590737E-4
5.623769898E0,-4.581354442E-4,7.635590737E-5,-1.527118147E-4
5.633427138E0,-4.581354442E-4,6.872031372E-4,4.581354442E-4
5.643084377E0,2.290677221E-4,7.635590737E-5,4.581354442E-4
5.652741617E0,1.527118147E-4,-5.344913807E-4,4.581354442E-4
5.662398857E0,-4.581354442E-4,-5.344913807E-4,-1.527118147E-4
5.672056096E0,-1.068982761E-3,7.635590737E-5,-1.527118147E-4
5.681713336E0,1.527118147E-4,7.635590737E-5,-1.527118147E-4
5.691370575E0,-4.581354442E-4,7.635590737E-5,-1.527118147E-4
5.701027815E0,-4.581354442E-4,-5.344913807E-4,-1.527118147E-4
5.710685055E0,-4.581354442E-4,7.635590737E-5,-1.527118147E-4
5.720342294E0,1.527118147E-4,1.298050396E-3,-1.527118147E-4
5.729999534E0,-4.581354442E-4,6.872031372E-4,-7.635590737E-4
5.739656773E0,-4.581354442E-4,6.872031372E-4,4.581354442E-4
5.749314013E0,-4.581354442E-4,-5.344913807E-4,-1.527118147E-4
5.758971252E0,1.527118147E-4,7.635590737E-5,-1.527118147E-4
5.768628492E0,1.527118147E-4,-5.344913807E-4,4.581354442E-4
5.778285732E0,1.527118147E-4,-5.344913807E-4,-1.527118147E-4
5.787942971E0,1.527118147E-4,6.872031372E-4,-7.635590737E-5
5.797600211E0,1.527118147E-4,7.635590737E-5,-6.872031372E-4
5.807257450E0,-4.581354442E-4,7.635590737E-5,-7.635590737E-5
5.816914690E0,-4.581354442E-4,7.635590737E-5,-7.635590737E-5
5.826571930E0,1.527118147E-4,-5.344913807E-4,-7.635590737E-5
5.836229169E0,1.527118147E-4,7.635590737E-5,-7.635590737E-5
5.845886409E0,1.527118147E-4,7.635590737E-5,5.344913807E-4
5.855543648E0,-4.581354442E-4,7.635590737E-5,-7.635590737E-5
5.865200888E0,8.399150101E-4,-5.344913807E-4,-7.635590737E-5
5.874858127E0,2.290677221E-4,7.635590737E-5,-7.635590737E-5
5.884515367E0,2.290677221E-4,0.000000000E0,5.344913807E-4
5.894172607E0,2.290677221E-4,0.000000000E0,5.344913807E-4
5.903829846E0,2.290677221E-4,0.000000000E0,-7.635590737E-5
5.913487086E0,2.290677221E-4,0.000000000E0,5.344913807E-4
5.923144325E0,2.290677221E-4,0.000000000E0,5.344913807E-4
5.932801565E0,-3.817795368E-4,0.000000000E0,5.344913807E-4
5.942458805E0,-3.817795368E-4,0.000000000E0,-7.635590737E-5
5.952116044E0,-3.817795368E-4,0.000000000E0,5.344913807E-4
5.961773284E0,-3.817795368E-4,0.000000000E0,5.344913807E-4
5.971430523E0,-3.817795368E-4,0.000000000E0,-7.635590737E-5
5.981087763E0,2.290677221E-4,-6.108472589E-4,5.344913807E-4
5.990745002E0,-3.817795368E-4,0.000000000E0,5.344913807E-4
6.000402242E0,2.290677221E-4,0.000000000E0,5.344913807E-4
6.010059482E0,-3.817795368E-4,-6.108472589E-4,-7.635590737E-5
6.019716721E0,2.290677221E-4,0.000000000E0,-7.635590737E-5
6.029374013E0,2.290677221E-4,0.000000000E0,-7.635590737E-5
6.039031200E0,-3.817795368E-4,6.108472589E-4,5.344913807E-4
6.048688492E0,2.290677221E-4,-6.108472589E-4,-7.635590737E-5
6.058345680E0,2.290677221E-4,0.000000000E0,-7.635590737E-5
6.068002919E0,2.290677221E-4,6.108472589E-4,5.344913807E-4
6.077660211E0,8.399150101E-4,0.000000000E0,5.344913807E-4
6.087317450E0,8.399150101E-4,0.000000000E0,1.145338640E-3
6.096974690E0,-3.817795368E-4,6.108472589E-4,5.344913807E-4
6.106631930E0,2.290677221E-4,0.000000000E0,5.344913807E-4
6.116289169E0,2.290677221E-4,0.000000000E0,5.344913807E-4
6.125946409E0,2.290677221E-4,0.000000000E0,4.581354442E-4
6.135603648E0,-3.817795368E-4,0.000000000E0,-1.527118147E-4
6.145260888E0,-3.817795368E-4,-6.108472589E-4,-1.527118147E-4
6.154918127E0,-3.817795368E-4,0.000000000E0,-1.527118147E-4
6.164575367E0,-3.817795368E-4,0.000000000E0,-7.635590737E-4
6.174232607E0,-3.817795368E-4,-6.108472589E-4,-1.527118147E-4
6.183889846E0,2.290677221E-4,0.000000000E0,-1.527118147E-4
6.193547086E0,-3.817795368E-4,-6.108472589E-4,-1.527118147E-4
6.203204325E0,2.290677221E-4,-6.108472589E-4,-1.527118147E-4
6.212861565E0,8.399150101E-4,-6.108472589E-4,-1.527118147E-4
6.222518805E0,-3.817795368E-4,-6.108472589E-4,-2.290677221E-4
6.232176044E0,8.399150101E-4,6.108472589E-4,-2.290677221E-4
6.241833284E0,2.290677221E-4,0.000000000E0,-2.290677221E-4
6.251490523E0,8.399150101E-4,-5.344913807E-4,-8.399150101E-4
6.261147763E0,8.399150101E-4,-5.344913807E-4,3.817795368E-4
6.270805002E0,2.290677221E-4,7.635590737E-5,3.817795368E-4
6.280462242E0,2.290677221E-4,-5.344913807E-4,-2.290677221E-4
6.290119482E0,-9.926267667E-4,7.635590737E-5,-8.399150101E-4
6.299776721E0,-3.817795368E-4,6.872031372E-4,3.817795368E-4
6.309433961E0,-3.817795368E-4,7.635590737E-5,-2.290677221E-4
6.319091200E0,-3.817795368E-4,-5.344913807E-4,-2.290677221E-4
6.328748440E0,2.290677221E-4,7.635590737E-5,3.817795368E-4
6.338405680E0,2.290677221E-4,7.635590737E-5,3.817795368E-4
6.348062919E0,-3.817795368E-4,7.635590737E-5,-2.290677221E-4
6.357720159E0,2.290677221E-4,7.635590737E-5,-8.399150101E-4
6.367377398E0,-3.817795368E-4,7.635590737E-5,3.817795368E-4
6.377034638E0,2.290677221E-4,7.635590737E-5,-2.290677221E-4
6.386691877E0,-4.581354442E-4,-5.344913807E-4,-2.290677221E-4
6.396349117E0,2.290677221E-4,7.635590737E-5,-2.290677221E-4
6.406006357E0,-4.581354442E-4,-5.344913807E-4,3.817795368E-4
6.415663596E0,-4.581354442E-4,-5.344913807E-4,-8.399150101E-4
6.425320836E0,2.290677221E-4,6.872031372E-4,-8.399150101E-4
6.434978075E0,-1.068982761E-3,7.635590737E-5,-8.399150101E-4
6.444635315E0,-4.581354442E-4,7.635590737E-5,-2.290677221E-4
6.454292555E0,-4.581354442E-4,-5.344913807E-4,3.817795368E-4
6.463949794E0,2.290677221E-4,7.635590737E-5,-2.290677221E-4
6.473607034E0,2.290677221E-4,7.635590737E-5,-8.399150101E-4
6.483264273E0,2.290677221E-4,6.872031372E-4,-8.399150101E-4
6.492921513E0,2.290677221E-4,7.635590737E-5,-2.290677221E-4
6.502578752E0,2.290677221E-4,-4.581354442E-4,-2.290677221E-4
6.512235992E0,2.290677221E-4,-4.581354442E-4,-2.290677221E-4
6.521893232E0,2.290677221E-4,1.527118147E-4,-2.290677221E-4
6.531550523E0,-4.581354442E-4,1.527118147E-4,3.817795368E-4
6.541207763E0,-4.581354442E-4,1.527118147E-4,4.581354442E-4
6.550865002E0,-4.581354442E-4,7.635590737E-4,4.581354442E-4
6.560522242E0,-3.817795368E-4,1.527118147E-4,-1.527118147E-4
6.570179482E0,2.290677221E-4,1.527118147E-4,-7.635590737E-4
6.579836721E0,-3.817795368E-4,-4.581354442E-4,-1.527118147E-4
6.589493961E0,-3.817795368E-4,7.635590737E-4,4.581354442E-4
6.599151200E0,2.290677221E-4,-4.581354442E-4,-1.527118147E-4
6.608808440E0,2.290677221E-4,-4.581354442E-4,-1.527118147E-4
6.618465680E0,2.290677221E-4,-4.581354442E-4,-1.527118147E-4
6.628122919E0,-3.817795368E-4,-4.581354442E-4,-1.527118147E-4
6.637780159E0,-3.817795368E-4,1.527118147E-4,4.581354442E-4
6.647437398E0,-3.817795368E-4,1.527118147E-4,-1.527118147E-4
6.657094638E0,8.399150101E-4,1.527118147E-4,-7.635590737E-5
6.666751877E0,-3.817795368E-4,7.635590737E-4,-7.635590737E-5
6.676409117E0,-3.817795368E-4,1.527118147E-4,-7.635590737E-5
6.686066357E0,2.290677221E-4,1.527118147E-4,-7.635590737E-5
6.695723596E0,2.290677221E-4,-4.581354442E-4,-7.635590737E-5
6.705380836E0,2.290677221E-4,1.527118147E-4,-6.872031372E-4
6.715038075E0,9.162708884E-4,1.527118147E-4,5.344913807E-4
6.724695315E0,-9.926267667E-4,1.527118147E-4,-7.635590737E-5
6.734352555E0,-3.817795368E-4,1.527118147E-4,5.344913807E-4
6.744009794E0,-3.817795368E-4,1.527118147E-4,5.344913807E-4
6.753667034E0,-3.817795368E-4,1.527118147E-4,-7.635590737E-5
6.763324273E0,3.054236295E-4,1.527118147E-4,-6.872031372E-4
6.772981513E0,-3.817795368E-4,-1.068982761E-3,-7.635590737E-5
6.782638752E0,3.054236295E-4,1.527118147E-4,-7.635590737E-5
6.792295992E0,-3.054236295E-4,1.527118147E-4,-7.635590737E-5
6.801953232E0,9.162708884E-4,7.635590737E-4,-7.635590737E-5
6.811610523E0,3.054236295E-4,1.527118147E-4,-6.872031372E-4
6.821267763E0,-3.054236295E-4,-4.581354442E-4,-7.635590737E-5
6.830925002E0,-3.054236295E-4,7.635590737E-4,-7.635590737E-5
6.840582190E0,3.054236295E-4,-4.581354442E-4,-7.635590737E-5
6.850239482E0,3.054236295E-4,-4.581354442E-4,-7.635590737E-5
6.859896721E0,3.054236295E-4,1.527118147E-4,-7.635590737E-5
6.869553961E0,-3.054236295E-4,-4.581354442E-4,-7.635590737E-5
6.879211200E0,-3.054236295E-4,1.527118147E-4,-7.635590737E-5
6.888868440E0,3.054236295E-4,1.527118147E-4,-7.635590737E-5
6.898525680E0,3.054236295E-4,-4.581354442E-4,5.344913807E-4
6.908182919E0,9.162708884E-4,-4.581354442E-4,-7.635590737E-5
6.917840159E0,-3.054236295E-4,-4.581354442E-4,1.145338640E-3
6.927497398E0,-3.054236295E-4,1.527118147E-4,1.145338640E-3
6.937154638E0,-3.054236295E-4,1.527118147E-4,5.344913807E-4
6.946811877E0,-9.162708884E-4,1.527118147E-4,-7.635590737E-5
6.956469117E0,3.054236295E-4,1.527118147E-4,-7.635590737E-5
6.966126357E0,3.054236295E-4,1.527118147E-4,-7.635590737E-5
6.975783596E0,-3.054236295E-4,-4.581354442E-4,-7.635590737E-5
6.985440836E0,3.054236295E-4,1.527118147E-4,5.344913807E-4
6.995098075E0,3.054236295E-4,7.635590737E-4,-7.635590737E-5
7.004755315E0,-3.054236295E-4,-1.068982761E-3,5.344913807E-4
7.014412555E0,-3.054236295E-4,1.527118147E-4,5.344913807E-4
7.024069794E0,3.054236295E-4,1.527118147E-4,-7.635590737E-5
7.033727034E0,3.054236295E-4,-4.581354442E-4,5.344913807E-4
7.043384273E0,3.054236295E-4,1.527118147E-4,1.145338640E-3
7.053041513E0,-3.054236295E-4,1.527118147E-4,1.145338640E-3
7.062698805E0,-3.054236295E-4,-4.581354442E-4,-7.635590737E-5
7.072356044E0,-3.054236295E-4,7.635590737E-4,-6.872031372E-4
7.082013284E0,-3.054236295E-4,1.527118147E-4,-7.635590737E-5
7.091670523E0,-3.054236295E-4,1.527118147E-4,5.344913807E-4
7.101327763E0,3.054236295E-4,-4.581354442E-4,5.344913807E-4
7.110985002E0,3.054236295E-4,-4.581354442E-4,-7.635590737E-5
7.120642242E0,3.054236295E-4,-4.581354442E-4,5.344913807E-4
7.130299482E0,3.054236295E-4,1.527118147E-4,5.344913807E-4
7.139956721E0,3.054236295E-4,1.527118147E-4,-7.635590737E-5
7.149613961E0,9.162708884E-4,1.527118147E-4,5.344913807E-4
7.159271200E0,3.054236295E-4,7.635590737E-4,-1.527118147E-4
7.168928440E0,3.054236295E-4,1.527118147E-4,-1.527118147E-4
7.178585680E0,-3.054236295E-4,-4.581354442E-4,-1.527118147E-4
7.188242919E0,-3.054236295E-4,1.527118147E-4,-1.527118147E-4
7.197900159E0,3.054236295E-4,1.527118147E-4,-1.527118147E-4
7.207557398E0,3.054236295E-4,1.527118147E-4,4.581354442E-4
7.217214638E0,3.054236295E-4,-4.581354442E-4,4.581354442E-4
7.226871877E0,3.054236295E-4,7.635590737E-4,4.581354442E-4
7.236529117E0,3.054236295E-4,1.527118147E-4,-1.527118147E-4
7.246186357E0,9.162708884E-4,1.527118147E-4,4.581354442E-4
7.255843596E0,3.054236295E-4,-4.581354442E-4,-2.290677221E-4
7.265500888E0,3.054236295E-4,1.527118147E-4,-2.290677221E-4
7.275158127E0,3.054236295E-4,1.527118147E-4,3.817795368E-4
7.284815367E0,-3.054236295E-4,-4.581354442E-4,-2.290677221E-4
7.294472607E0,3.054236295E-4,1.527118147E-4,3.817795368E-4
7.304129846E0,-3.817795368E-4,-4.581354442E-4,-2.290677221E-4
7.313787086E0,-3.817795368E-4,-4.581354442E-4,-8.399150101E-4
7.323444325E0,3.054236295E-4,-4.581354442E-4,-2.290677221E-4
7.333101565E0,3.054236295E-4,1.527118147E-4,3.817795368E-4
7.342758805E0,2.290677221E-4,7.635590737E-4,-2.290677221E-4
7.352416044E0,9.162708884E-4,1.527118147E-4,3.817795368E-4
7.362073284E0,2.290677221E-4,1.527118147E-4,3.817795368E-4
7.371730523E0,2.290677221E-4,-4.581354442E-4,-2.290677221E-4
7.381387763E0,2.290677221E-4,-4.581354442E-4,-3.054236295E-4
7.391045002E0,2.290677221E-4,1.527118147E-4,-3.054236295E-4
7.400702242E0,2.290677221E-4,1.527118147E-4,-3.054236295E-4
7.410359482E0,2.290677221E-4,1.527118147E-4,3.054236295E-4
7.420016721E0,2.290677221E-4,1.527118147E-4,3.054236295E-4
7.429673961E0,-3.817795368E-4,1.527118147E-4,3.054236295E-4
7.439331252E0,2.290677221E-4,-4.581354442E-4,-3.054236295E-4
7.448988492E0,2.290677221E-4,1.527118147E-4,-3.054236295E-4
7.458645732E0,2.290677221E-4,1.527118147E-4,-9.162708884E-4
7.468302971E0,-4.581354442E-4,1.527118147E-4,-3.054236295E-4
7.477960211E0,-4.581354442E-4,1.527118147E-4,-3.054236295E-4
7.487617450E0,1.527118147E-4,1.527118147E-4,-9.162708884E-4
7.497274690E0,-4.581354442E-4,1.527118147E-4,-9.162708884E-4
7.506931930E0,-4.581354442E-4,1.527118147E-4,-3.054236295E-4
7.516589169E0,1.527118147E-4,-4.581354442E-4,3.054236295E-4
7.526246409E0,1.527118147E-4,1.527118147E-4,-3.054236295E-4
7.535903648E0,1.527118147E-4,7.635590737E-4,-9.162708884E-4
7.545560888E0,1.527118147E-4,1.527118147E-4,3.054236295E-4
7.555218127E0,-4.581354442E-4,-4.581354442E-4,3.054236295E-4
7.564875367E0,1.527118147E-4,1.527118147E-4,-2.290677221E-4
7.574532607E0,-4.581354442E-4,-4.581354442E-4,-2.290677221E-4
7.584189846E0,1.527118147E-4,1.527118147E-4,-2.290677221E-4
7.593847138E0,-4.581354442E-4,-4.581354442E-4,-2.290677221E-4
7.603504377E0,1.527118147E-4,-4.581354442E-4,3.817795368E-4
7.613161617E0,1.527118147E-4,1.527118147E-4,-2.290677221E-4
7.622818857E0,1.527118147E-4,1.527118147E-4,-2.290677221E-4
7.632476096E0,1.527118147E-4,-4.581354442E-4,-2.290677221E-4
7.642133336E0,-5.344913807E-4,1.527118147E-4,3.817795368E-4
7.651790575E0,-5.344913807E-4,1.527118147E-4,-2.290677221E-4
7.661447815E0,1.527118147E-4,1.527118147E-4,-2.290677221E-4
7.671105055E0,1.527118147E-4,1.527118147E-4,-2.290677221E-4
7.680762294E0,-5.344913807E-4,-4.581354442E-4,-8.399150101E-4
7.690419534E0,7.635590737E-4,1.527118147E-4,-2.290677221E-4
7.700076773E0,-4.581354442E-4,7.635590737E-4,3.817795368E-4
7.709734013E0,-4.581354442E-4,1.527118147E-4,4.581354442E-4
7.719391252E0,-4.581354442E-4,-4.581354442E-4,-1.527118147E-4
7.729048492E0,1.527118147E-4,1.527118147E-4,-1.527118147E-4
7.738705784E0,1.527118147E-4,1.527118147E-4,4.581354442E-4
7.748363023E0,-4.581354442E-4,1.527118147E-4,4.581354442E-4
7.758020263E0,-4.581354442E-4,7.635590737E-4,4.581354442E-4
7.767677502E0,-4.581354442E-4,7.635590737E-4,-1.527118147E-4
7.777334742E0,-4.581354442E-4,1.527118147E-4,-1.527118147E-4
7.786991982E0,1.527118147E-4,1.527118147E-4,4.581354442E-4
7.796649221E0,1.527118147E-4,1.527118147E-4,1.068982761E-3
7.806306461E0,1.527118147E-4,1.527118147E-4,4.581354442E-4
7.815963700E0,-1.068982761E-3,7.635590737E-4,-1.527118147E-4
7.825620940E0,-4.581354442E-4,1.527118147E-4,-1.527118147E-4
7.835278180E0,1.527118147E-4,7.635590737E-4,4.581354442E-4
7.844935419E0,-4.581354442E-4,1.527118147E-4,-1.527118147E-4
7.854592659E0,1.527118147E-4,1.527118147E-4,-1.527118147E-4
7.864249898E0,-4.581354442E-4,-4.581354442E-4,4.581354442E-4
7.873907190E0,-4.581354442E-4,1.527118147E-4,-7.635590737E-4
7.883564430E0,8.399150101E-4,1.527118147E-4,-1.527118147E-4
7.893221669E0,2.290677221E-4,1.527118147E-4,-1.527118147E-4
7.902878909E0,2.290677221E-4,1.527118147E-4,4.581354442E-4
7.912536148E0,2.290677221E-4,7.635590737E-4,-1.527118147E-4
7.922193388E0,2.290677221E-4,7.635590737E-5,-1.527118147E-4
7.931850627E0,8.399150101E-4,-5.344913807E-4,4.581354442E-4
7.941507867E0,8.399150101E-4,7.635590737E-5,-1.527118147E-4
7.951165107E0,8.399150101E-4,7.635590737E-5,-1.527118147E-4
7.960822346E0,2.290677221E-4,7.635590737E-5,-1.527118147E-4
7.970479586E0,2.290677221E-4,7.635590737E-5,-1.527118147E-4
7.980136825E0,-3.817795368E-4,-5.344913807E-4,-1.527118147E-4
7.989794065E0,2.290677221E-4,7.635590737E-5,-7.635590737E-4
7.999451305E0,2.290677221E-4,7.635590737E-5,-7.635590737E-4
8.009108596E0,-3.817795368E-4,7.635590737E-5,4.581354442E-4
8.018765836E0,1.450762269E-3,7.635590737E-5,-1.527118147E-4
8.028423075E0,8.399150101E-4,7.635590737E-5,-7.635590737E-4
8.038080315E0,8.399150101E-4,7.635590737E-5,-7.635590737E-4
8.047737555E0,-3.817795368E-4,7.635590737E-5,-1.527118147E-4
8.057394794E0,2.290677221E-4,7.635590737E-5,-7.635590737E-4
8.067052034E0,-3.817795368E-4,6.108472589E-4,-1.527118147E-4
8.076709273E0,-3.817795368E-4,0.000000000E0,4.581354442E-4
8.086366513E0,-3.817795368E-4,0.000000000E0,4.581354442E-4
8.096023752E0,2.290677221E-4,-6.108472589E-4,4.581354442E-4
8.105680992E0,2.290677221E-4,0.000000000E0,-1.527118147E-4
8.115338232E0,2.290677221E-4,-6.108472589E-4,-1.527118147E-4
8.124995523E0,-3.817795368E-4,0.000000000E0,-1.527118147E-4
8.134652763E0,-3.817795368E-4,-6.108472589E-4,-1.527118147E-4
8.144310002E0,-3.817795368E-4,0.000000000E0,1.068982761E-3
8.153967242E0,2.290677221E-4,0.000000000E0,4.581354442E-4
8.163624482E0,2.290677221E-4,-6.108472589E-4,-1.527118147E-4
8.173281721E0,1.527118147E-4,0.000000000E0,-1.527118147E-4
8.182938961E0,1.527118147E-4,0.000000000E0,-7.635590737E-4
8.192596200E0,1.527118147E-4,-6.108472589E-4,-7.635590737E-4
8.202253440E0,1.527118147E-4,0.000000000E0,-7.635590737E-4
8.211910680E0,-4.581354442E-4,6.108472589E-4,-1.527118147E-4
8.221567919E0,1.527118147E-4,0.000000000E0,-1.527118147E-4
8.231225211E0,1.527118147E-4,0.000000000E0,-1.527118147E-4
8.240882450E0,1.527118147E-4,-6.108472589E-4,-1.527118147E-4
8.250539690E0,-4.581354442E-4,-6.108472589E-4,-1.527118147E-4
8.260196930E0,1.527118147E-4,0.000000000E0,-7.635590737E-5
8.269854169E0,1.527118147E-4,0.000000000E0,-7.635590737E-5
8.279511409E0,1.527118147E-4,0.000000000E0,-7.635590737E-5
8.289168648E0,1.527118147E-4,0.000000000E0,-7.635590737E-5
8.298825888E0,-5.344913807E-4,0.000000000E0,5.344913807E-4
8.308483127E0,-5.344913807E-4,0.000000000E0,-7.635590737E-5
8.318140367E0,1.527118147E-4,0.000000000E0,-7.635590737E-5
8.327797607E0,7.635590737E-4,0.000000000E0,5.344913807E-4
8.337454846E0,1.527118147E-4,0.000000000E0,5.344913807E-4
8.347112086E0,1.527118147E-4,0.000000000E0,5.344913807E-4
8.356769325E0,1.527118147E-4,-5.344913807E-4,-7.635590737E-5
8.366426617E0,1.527118147E-4,7.635590737E-5,5.344913807E-4
8.376083857E0,-1.145338640E-3,-5.344913807E-4,1.145338640E-3
8.385741096E0,-5.344913807E-4,7.635590737E-5,-7.635590737E-5
8.395398336E0,1.527118147E-4,7.635590737E-5,5.344913807E-4
8.405055575E0,-5.344913807E-4,7.635590737E-5,-7.635590737E-5
8.414712815E0,-5.344913807E-4,7.635590737E-5,5.344913807E-4
8.424370055E0,1.527118147E-4,7.635590737E-5,-7.635590737E-5
8.434027294E0,1.527118147E-4,-5.344913807E-4,5.344913807E-4
8.443684534E0,-5.344913807E-4,6.872031372E-4,-7.635590737E-5
8.453341773E0,1.527118147E-4,-5.344913807E-4,5.344913807E-4
8.462999013E0,-5.344913807E-4,-5.344913807E-4,-7.635590737E-5
8.472656305E0,1.527118147E-4,-5.344913807E-4,5.344913807E-4
8.482313544E0,1.527118147E-4,-5.344913807E-4,5.344913807E-4
8.491970784E0,1.527118147E-4,7.635590737E-5,1.145338640E-3
8.501628023E0,1.527118147E-4,7.635590737E-5,5.344913807E-4
8.511285263E0,-4.581354442E-4,-5.344913807E-4,5.344913807E-4
8.520942502E0,1.527118147E-4,7.635590737E-5,5.344913807E-4
8.530599742E0,1.527118147E-4,-5.344913807E-4,5.344913807E-4
8.540256982E0,1.527118147E-4,6.872031372E-4,5.344913807E-4
8.549914221E0,-4.581354442E-4,6.872031372E-4,5.344913807E-4
8.559571461E0,-4.581354442E-4,7.635590737E-5,-7.635590737E-5
8.569228752E0,-4.581354442E-4,-5.344913807E-4,4.581354442E-4
8.578885992E0,1.527118147E-4,7.635590737E-5,-1.527118147E-4
8.588543232E0,-4.581354442E-4,6.872031372E-4,-1.527118147E-4
8.598200471E0,1.527118147E-4,7.635590737E-5,4.581354442E-4
8.607857711E0,1.527118147E-4,-5.344913807E-4,-1.527118147E-4
8.617514950E0,-4.581354442E-4,-4.581354442E-4,4.581354442E-4
8.627172190E0,7.635590737E-4,1.527118147E-4,4.581354442E-4
8.636829430E0,-4.581354442E-4,1.527118147E-4,-1.527118147E-4
8.646486669E0,1.527118147E-4,7.635590737E-4,-2.290677221E-4
8.656143909E0,1.527118147E-4,1.527118147E-4,-2.290677221E-4
8.665801148E0,-4.581354442E-4,1.527118147E-4,3.817795368E-4
8.675458388E0,-4.581354442E-4,-4.581354442E-4,3.817795368E-4
8.685115680E0,1.527118147E-4,1.527118147E-4,3.817795368E-4
8.694772919E0,1.527118147E-4,1.527118147E-4,-2.290677221E-4
8.704430159E0,-4.581354442E-4,-4.581354442E-4,-2.290677221E-4
8.714087398E0,2.290677221E-4,1.527118147E-4,3.817795368E-4
8.723744638E0,2.290677221E-4,1.527118147E-4,3.054236295E-4
8.733401877E0,-4.581354442E-4,-4.581354442E-4,-3.054236295E-4
8.743059117E0,8.399150101E-4,7.635590737E-4,-3.054236295E-4
8.752716357E0,2.290677221E-4,7.635590737E-4,-3.054236295E-4
8.762373596E0,-3.817795368E-4,7.635590737E-4,-3.054236295E-4
8.772030888E0,-3.817795368E-4,1.527118147E-4,-3.054236295E-4
8.781688127E0,-3.817795368E-4,1.527118147E-4,3.054236295E-4
8.791345367E0,2.290677221E-4,1.527118147E-4,-3.054236295E-4
8.801002607E0,1.450762269E-3,1.527118147E-4,3.054236295E-4
8.810659846E0,-3.817795368E-4,1.527118147E-4,-3.054236295E-4
8.820317086E0,-3.817795368E-4,1.527118147E-4,-3.054236295E-4
8.829974325E0,8.399150101E-4,1.527118147E-4,-3.817795368E-4
8.839631565E0,8.399150101E-4,7.635590737E-4,-3.817795368E-4
8.849288805E0,8.399150101E-4,1.527118147E-4,-3.817795368E-4
8.858946044E0,-3.817795368E-4,-4.581354442E-4,-3.817795368E-4
8.868603336E0,-3.817795368E-4,1.527118147E-4,2.290677221E-4
8.878260575E0,-3.817795368E-4,1.527118147E-4,-3.817795368E-4
8.887917815E0,-3.817795368E-4,-5.344913807E-4,-9.926267667E-4
8.897575055E0,2.290677221E-4,7.635590737E-5,-3.817795368E-4
8.907232294E0,2.290677221E-4,7.635590737E-5,-9.926267667E-4
8.916889534E0,2.290677221E-4,-5.344913807E-4,-3.817795368E-4
8.926546773E0,-3.817795368E-4,7.635590737E-5,-3.817795368E-4
8.936204013E0,-9.926267667E-4,-5.344913807E-4,-3.817795368E-4
8.945861252E0,2.290677221E-4,7.635590737E-5,-3.054236295E-4
8.955518544E0,-3.817795368E-4,-5.344913807E-4,-3.054236295E-4
8.965175784E0,2.290677221E-4,7.635590737E-5,-3.054236295E-4
8.974833023E0,2.290677221E-4,6.872031372E-4,-3.054236295E-4
8.984490263E0,-3.817795368E-4,7.635590737E-5,-3.054236295E-4
8.994147502E0,2.290677221E-4,-5.344913807E-4,3.054236295E-4
9.003804742E0,2.290677221E-4,7.635590737E-5,3.054236295E-4
9.013461982E0,2.290677221E-4,-5.344913807E-4,3.054236295E-4
9.023119221E0,2.290677221E-4,-5.344913807E-4,-9.162708884E-4
9.032776461E0,-3.817795368E-4,-5.344913807E-4,-9.162708884E-4
9.042433700E0,-3.817795368E-4,7.635590737E-5,3.054236295E-4
9.052090992E0,2.290677221E-4,6.872031372E-4,-3.054236295E-4
9.061748232E0,8.399150101E-4,7.635590737E-5,-8.399150101E-4
9.071405471E0,8.399150101E-4,6.872031372E-4,-2.290677221E-4
9.081062711E0,8.399150101E-4,7.635590737E-5,-2.290677221E-4
9.090719950E0,-4.581354442E-4,6.872031372E-4,-2.290677221E-4
9.100377190E0,2.290677221E-4,-5.344913807E-4,3.817795368E-4
9.110034430E0,8.399150101E-4,7.635590737E-5,-2.290677221E-4
9.119691669E0,8.399150101E-4,7.635590737E-5,3.817795368E-4
9.129348909E0,2.290677221E-4,7.635590737E-5,-2.290677221E-4
9.139006200E0,2.290677221E-4,-5.344913807E-4,-2.290677221E-4
9.148663440E0,2.290677221E-4,7.635590737E-5,4.581354442E-4
9.158320680E0,2.290677221E-4,7.635590737E-5,-1.527118147E-4
9.167977919E0,8.399150101E-4,6.872031372E-4,-7.635590737E-4
9.177635159E0,8.399150101E-4,7.635590737E-5,-1.527118147E-4
9.187292398E0,1.527118147E-4,-5.344913807E-4,4.581354442E-4
9.196949638E0,1.527118147E-4,7.635590737E-5,-1.527118147E-4
9.206606877E0,-4.581354442E-4,7.635590737E-5,-1.527118147E-4
9.216264117E0,-4.581354442E-4,7.635590737E-5,-1.527118147E-4
9.225921409E0,-4.581354442E-4,7.635590737E-5,-1.527118147E-4
9.235578648E0,1.527118147E-4,7.635590737E-5,4.581354442E-4
9.245235888E0,1.527118147E-4,6.872031372E-4,1.068982761E-3
9.254893127E0,1.527118147E-4,7.635590737E-5,-7.635590737E-5
9.264550367E0,1.527118147E-4,-5.344913807E-4,-7.635590737E-5
9.274207607E0,-4.581354442E-4,7.635590737E-5,-7.635590737E-5
9.283864846E0,1.527118147E-4,7.635590737E-5,5.344913807E-4
9.293522086E0,1.527118147E-4,6.872031372E-4,-6.872031372E-4
9.303179377E0,-4.581354442E-4,6.872031372E-4,-7.635590737E-5
9.312836617E0,1.527118147E-4,7.635590737E-5,-7.635590737E-5
9.322493857E0,-5.344913807E-4,-5.344913807E-4,-7.635590737E-5
9.332151096E0,7.635590737E-5,7.635590737E-5,-7.635590737E-5
9.341808336E0,7.635590737E-5,7.635590737E-5,5.344913807E-4
9.351465575E0,-5.344913807E-4,6.872031372E-4,5.344913807E-4
9.361122815E0,7.635590737E-5,7.635590737E-5,5.344913807E-4
9.370780055E0,7.635590737E-5,7.635590737E-5,-7.635590737E-5
9.380437294E0,7.635590737E-5,7.635590737E-5,-7.635590737E-5
9.390094586E0,7.635590737E-5,6.872031372E-4,-7.635590737E-5
9.399751825E0,-5.344913807E-4,-5.344913807E-4,-7.635590737E-5
9.409409065E0,7.635590737E-5,7.635590737E-5,5.344913807E-4
9.419066305E0,7.635590737E-5,-5.344913807E-4,5.344913807E-4
9.428723544E0,7.635590737E-5,-5.344913807E-4,-7.635590737E-5
9.438380784E0,-5.344913807E-4,7.635590737E-5,-7.635590737E-5
9.448038023E0,6.872031372E-4,-5.344913807E-4,-6.872031372E-4
9.457695315E0,7.635590737E-5,-5.344913807E-4,-7.635590737E-5
9.467352555E0,7.635590737E-5,7.635590737E-5,-7.635590737E-5
9.477009794E0,-5.344913807E-4,-6.108472589E-4,-6.872031372E-4
9.486667034E0,7.635590737E-5,-1.221694518E-3,-7.635590737E-5
9.496324273E0,7.635590737E-5,-6.108472589E-4,-7.635590737E-5
9.505981513E0,-5.344913807E-4,-6.108472589E-4,-6.872031372E-4
9.515638752E0,-5.344913807E-4,0.000000000E0,-7.635590737E-5
9.525295992E0,-1.145338640E-3,-6.108472589E-4,5.344913807E-4
9.534953232E0,7.635590737E-5,0.000000000E0,-7.635590737E-5
9.544610523E0,7.635590737E-5,-6.108472589E-4,5.344913807E-4
9.554267763E0,7.635590737E-5,-6.108472589E-4,5.344913807E-4
9.563925002E0,6.872031372E-4,0.000000000E0,5.344913807E-4
9.573582242E0,6.872031372E-4,-6.108472589E-4,5.344913807E-4
9.583239482E0,7.635590737E-5,-6.108472589E-4,5.344913807E-4
9.592896721E0,-5.344913807E-4,7.635590737E-5,-7.635590737E-5
9.602553961E0,-1.145338640E-3,6.872031372E-4,5.344913807E-4
9.612211200E0,-5.344913807E-4,7.635590737E-5,-7.635590737E-5
9.621868492E0,-5.344913807E-4,7.635590737E-5,-6.872031372E-4
9.631525732E0,7.635590737E-5,-5.344913807E-4,-1.527118147E-4
9.641182971E0,7.635590737E-5,7.635590737E-5,-1.527118147E-4
9.650840211E0,-5.344913807E-4,-5.344913807E-4,-1.527118147E-4
9.660497450E0,-5.344913807E-4,7.635590737E-5,-1.527118147E-4
9.670154690E0,7.635590737E-5,7.635590737E-5,-1.527118147E-4
9.679811930E0,1.527118147E-4,-5.344913807E-4,-1.527118147E-4
9.689469221E0,1.527118147E-4,7.635590737E-5,-1.527118147E-4
9.699126461E0,1.527118147E-4,6.872031372E-4,4.581354442E-4
9.708783700E0,7.635590737E-4,1.527118147E-4,4.581354442E-4
9.718440940E0,-4.581354442E-4,1.527118147E-4,-1.527118147E-4
9.728098180E0,1.527118147E-4,-4.581354442E-4,-1.527118147E-4
9.737755419E0,1.527118147E-4,7.635590737E-4,-7.635590737E-4
9.747412659E0,1.527118147E-4,1.527118147E-4,-7.635590737E-4
9.757069898E0,1.527118147E-4,1.527118147E-4,-1.527118147E-4
9.766727190E0,1.527118147E-4,1.527118147E-4,4.581354442E-4
9.776384430E0,7.635590737E-4,1.527118147E-4,-1.527118147E-4
9.786041669E0,-4.581354442E-4,1.527118147E-4,4.581354442E-4
9.795698909E0,1.527118147E-4,1.527118147E-4,-7.635590737E-4
9.805356148E0,-4.581354442E-4,-4.581354442E-4,4.581354442E-4
9.815013388E0,-4.581354442E-4,1.527118147E-4,-1.527118147E-4
9.824670627E0,-4.581354442E-4,-3.817795368E-4,-7.635590737E-4
9.834327919E0,-4.581354442E-4,2.290677221E-4,-7.635590737E-4
9.843985159E0,-1.068982761E-3,2.290677221E-4,-1.527118147E-4
9.853642398E0,1.527118147E-4,2.290677221E-4,-7.635590737E-4
9.863299638E0,1.527118147E-4,8.399150101E-4,-7.635590737E-4
9.872956877E0,7.635590737E-4,2.290677221E-4,4.581354442E-4
9.882614117E0,1.527118147E-4,8.399150101E-4,-1.527118147E-4
9.892271357E0,1.527118147E-4,2.290677221E-4,-1.527118147E-4
9.901928596E0,1.527118147E-4,2.290677221E-4,-7.635590737E-4
9.911585888E0,1.527118147E-4,2.290677221E-4,-6.872031372E-4
9.921243127E0,-4.581354442E-4,2.290677221E-4,-7.635590737E-5
9.930900367E0,-4.581354442E-4,1.527118147E-4,5.344913807E-4
9.940557607E0,-4.581354442E-4,1.527118147E-4,5.344913807E-4
9.950214846E0,-4.581354442E-4,1.527118147E-4,-7.635590737E-5
9.959872086E0,1.527118147E-4,1.527118147E-4,-7.635590737E-5
9.969529325E0,8.399150101E-4,-4.581354442E-4,5.344913807E-4
9.979186617E0,1.527118147E-4,-4.581354442E-4,5.344913807E-4
9.988843857E0,8.399150101E-4,-4.581354442E-4,-6.872031372E-4
9.998501096E0,2.290677221E-4,1.527118147E-4,-7.635590737E-5
1.000815834E1,2.290677221E-4,-4.581354442E-4,-6.872031372E-4
1.001781558E1,-4.581354442E-4,1.527118147E-4,-1.298050396E-3
1.002747282E1,2.290677221E-4,1.527118147E-4,-7.635590737E-5
1.003713006E1,-4.581354442E-4,-4.581354442E-4,-7.635590737E-5
1.004678735E1,2.290677221E-4,1.527118147E-4,5.344913807E-4
1.005644459E1,-4.581354442E-4,1.527118147E-4,5.344913807E-4
1.006610182E1,-4.581354442E-4,-4.581354442E-4,1.145338640E-3
1.007575907E1,2.290677221E-4,1.527118147E-4,-7.635590737E-5
1.008541630E1,2.290677221E-4,1.527118147E-4,-0.000000000E0
1.009507354E1,2.290677221E-4,1.527118147E-4,6.108472589E-4
1.010473078E1,2.290677221E-4,1.527118147E-4,6.108472589E-4
1.011438808E1,2.290677221E-4,7.635590737E-5,6.108472589E-4
1.012404532E1,2.290677221E-4,-5.344913807E-4,6.108472589E-4
1.013370256E1,-4.581354442E-4,-1.145338640E-3,-0.000000000E0
1.014335979E1,-4.581354442E-4,-5.344913807E-4,-0.000000000E0
1.015301703E1,2.290677221E-4,7.635590737E-5,-0.000000000E0
1.016267427E1,2.290677221E-4,6.872031372E-4,6.108472589E-4
1.017233151E1,2.290677221E-4,7.635590737E-5,6.108472589E-4
1.018198881E1,8.399150101E-4,7.635590737E-5,-0.000000000E0
1.019164604E1,-4.581354442E-4,7.635590737E-5,6.108472589E-4
1.020130328E1,-4.581354442E-4,7.635590737E-5,6.108472589E-4
1.021096052E1,1.527118147E-4,7.635590737E-5,-0.000000000E0
1.022061776E1,-4.581354442E-4,7.635590737E-5,-0.000000000E0
1.023027500E1,-4.581354442E-4,7.635590737E-5,6.108472589E-4
1.023993224E1,-4.581354442E-4,7.635590737E-5,-6.108472589E-4
1.024958953E1,1.527118147E-4,-5.344913807E-4,-0.000000000E0
1.025924677E1,1.527118147E-4,7.635590737E-5,-0.000000000E0
1.026890401E1,1.527118147E-4,1.527118147E-4,6.108472589E-4
1.027856125E1,-4.581354442E-4,-4.581354442E-4,-7.635590737E-5
1.028821849E1,-4.581354442E-4,1.527118147E-4,-6.872031372E-4
1.029787573E1,-4.581354442E-4,-4.581354442E-4,-6.872031372E-4
1.030753297E1,-4.581354442E-4,-4.581354442E-4,-7.635590737E-5
1.031719026E1,-4.581354442E-4,1.527118147E-4,-7.635590737E-5
1.032684750E1,-4.581354442E-4,-4.581354442E-4,-7.635590737E-5
1.033650474E1,-4.581354442E-4,1.527118147E-4,5.344913807E-4
1.034616198E1,1.527118147E-4,1.527118147E-4,5.344913807E-4
1.035581922E1,1.527118147E-4,1.527118147E-4,-7.635590737E-5
1.036547646E1,1.527118147E-4,7.635590737E-4,5.344913807E-4
1.037513370E1,1.527118147E-4,-4.581354442E-4,-7.635590737E-5
1.038479099E1,2.290677221E-4,1.527118147E-4,5.344913807E-4
1.039444823E1,-4.581354442E-4,1.527118147E-4,5.344913807E-4
1.040410547E1,2.290677221E-4,1.527118147E-4,4.581354442E-4
1.041376271E1,2.290677221E-4,1.527118147E-4,-1.527118147E-4
1.042341995E1,-1.068982761E-3,1.527118147E-4,-1.527118147E-4
1.043307719E1,2.290677221E-4,1.527118147E-4,-1.527118147E-4
1.044273448E1,-3.817795368E-4,-4.581354442E-4,-1.527118147E-4
1.045239172E1,-3.817795368E-4,1.527118147E-4,-7.635590737E-4
1.046204896E1,2.290677221E-4,1.374406274E-3,-1.527118147E-4
1.047170620E1,8.399150101E-4,1.527118147E-4,-7.635590737E-4
1.048136344E1,-3.817795368E-4,-4.581354442E-4,4.581354442E-4
1.049102068E1,2.290677221E-4,1.527118147E-4,-1.527118147E-4
1.050067792E1,2.290677221E-4,1.527118147E-4,4.581354442E-4
1.051033521E1,2.290677221E-4,1.527118147E-4,-7.635590737E-4
1.051999245E1,-3.817795368E-4,1.527118147E-4,-1.527118147E-4
1.052964969E1,2.290677221E-4,1.527118147E-4,-1.527118147E-4
1.053930693E1,2.290677221E-4,1.527118147E-4,-1.527118147E-4
1.054896417E1,-3.817795368E-4,-4.581354442E-4,-1.527118147E-4
1.055862141E1,2.290677221E-4,1.527118147E-4,-1.527118147E-4
1.056827870E1,2.290677221E-4,7.635590737E-4,-1.527118147E-4
1.057793594E1,-3.817795368E-4,1.527118147E-4,-1.527118147E-4
1.058759318E1,2.290677221E-4,1.527118147E-4,4.581354442E-4
1.059725042E1,2.290677221E-4,1.527118147E-4,-1.527118147E-4
1.060690766E1,2.290677221E-4,1.527118147E-4,-1.527118147E-4
1.061656490E1,-3.817795368E-4,1.527118147E-4,4.581354442E-4
1.062622214E1,3.054236295E-4,1.527118147E-4,4.581354442E-4
1.063587943E1,3.054236295E-4,1.527118147E-4,-1.527118147E-4
1.064553667E1,-3.817795368E-4,7.635590737E-4,4.581354442E-4
1.065519391E1,-3.817795368E-4,1.527118147E-4,-1.527118147E-4
1.066485115E1,3.054236295E-4,1.527118147E-4,4.581354442E-4
1.067450839E1,3.054236295E-4,7.635590737E-5,4.581354442E-4
1.068416563E1,-3.817795368E-4,-5.344913807E-4,-1.527118147E-4
1.069382292E1,3.054236295E-4,6.872031372E-4,-1.527118147E-4
1.070348016E1,-3.817795368E-4,7.635590737E-5,4.581354442E-4
1.071313740E1,2.290677221E-4,-1.145338640E-3,4.581354442E-4
1.072279464E1,9.162708884E-4,7.635590737E-5,-1.527118147E-4
1.073245188E1,2.290677221E-4,7.635590737E-5,-1.527118147E-4
1.074210912E1,2.290677221E-4,-5.344913807E-4,-1.527118147E-4
1.075176641E1,2.290677221E-4,6.872031372E-4,4.581354442E-4
1.076142365E1,-3.817795368E-4,-5.344913807E-4,1.068982761E-3
1.077108089E1,2.290677221E-4,7.635590737E-5,-1.527118147E-4
1.078073813E1,2.290677221E-4,6.872031372E-4,-1.527118147E-4
1.079039537E1,8.399150101E-4,7.635590737E-5,4.581354442E-4
1.080005261E1,2.290677221E-4,7.635590737E-5,-1.527118147E-4
1.080970990E1,2.290677221E-4,7.635590737E-5,-1.527118147E-4
1.081936714E1,2.290677221E-4,7.635590737E-5,-1.527118147E-4
1.082902438E1,2.290677221E-4,7.635590737E-5,-1.527118147E-4
1.083868162E1,2.290677221E-4,6.872031372E-4,4.581354442E-4
1.084833886E1,2.290677221E-4,6.872031372E-4,-1.527118147E-4
1.085799610E1,2.290677221E-4,7.635590737E-5,-1.527118147E-4
1.086765339E1,2.290677221E-4,6.872031372E-4,-1.527118147E-4
1.087731063E1,-3.817795368E-4,7.635590737E-5,-7.635590737E-4
1.088696787E1,2.290677221E-4,7.635590737E-5,4.581354442E-4
1.089662511E1,-3.817795368E-4,0.000000000E0,-1.527118147E-4
1.090628235E1,2.290677221E-4,6.108472589E-4,-1.527118147E-4
1.091593959E1,8.399150101E-4,0.000000000E0,-7.635590737E-4
1.092559688E1,-3.817795368E-4,-6.108472589E-4,-1.527118147E-4
1.093525412E1,-4.581354442E-4,0.000000000E0,-1.527118147E-4
1.094491136E1,-4.581354442E-4,0.000000000E0,4.581354442E-4
1.095456860E1,2.290677221E-4,0.000000000E0,4.581354442E-4
1.096422584E1,1.527118147E-4,0.000000000E0,4.581354442E-4
1.097388308E1,-4.581354442E-4,0.000000000E0,4.581354442E-4
1.098354037E1,-4.581354442E-4,-6.108472589E-4,4.581354442E-4
1.099319761E1,-4.581354442E-4,0.000000000E0,4.581354442E-4
1.100285485E1,-4.581354442E-4,0.000000000E0,3.817795368E-4
1.101251209E1,1.527118147E-4,0.000000000E0,3.817795368E-4
1.102216932E1,1.527118147E-4,-6.108472589E-4,3.817795368E-4
1.103182657E1,1.527118147E-4,-6.108472589E-4,9.926267667E-4
1.104148386E1,7.635590737E-4,-6.108472589E-4,3.817795368E-4
1.105114110E1,7.635590737E-4,-6.108472589E-4,3.817795368E-4
1.106079834E1,1.527118147E-4,-0.000000000E0,3.817795368E-4
1.107045558E1,1.527118147E-4,6.108472589E-4,-8.399150101E-4
1.108011282E1,-4.581354442E-4,-6.108472589E-4,3.817795368E-4
1.108977011E1,1.527118147E-4,-6.108472589E-4,9.926267667E-4
1.109942735E1,-4.581354442E-4,-0.000000000E0,3.817795368E-4
1.110908459E1,1.527118147E-4,-0.000000000E0,-2.290677221E-4
1.111874182E1,-4.581354442E-4,-6.108472589E-4,3.817795368E-4
1.112839906E1,-4.581354442E-4,-6.108472589E-4,3.817795368E-4
1.113805631E1,1.527118147E-4,-0.000000000E0,-2.290677221E-4
1.114771354E1,-4.581354442E-4,-0.000000000E0,-8.399150101E-4
1.115737084E1,1.527118147E-4,-0.000000000E0,-8.399150101E-4
1.116702808E1,1.527118147E-4,-6.108472589E-4,-2.290677221E-4
1.117668532E1,1.527118147E-4,-0.000000000E0,3.817795368E-4
1.118634256E1,-4.581354442E-4,-0.000000000E0,9.926267667E-4
1.119599979E1,-4.581354442E-4,-6.108472589E-4,3.817795368E-4
1.120565709E1,1.527118147E-4,0.000000000E0,-2.290677221E-4
1.121531433E1,-4.581354442E-4,0.000000000E0,3.817795368E-4
1.122497156E1,1.527118147E-4,0.000000000E0,3.817795368E-4
1.123462880E1,1.527118147E-4,-6.108472589E-4,3.054236295E-4
1.124428604E1,1.527118147E-4,-6.108472589E-4,-3.054236295E-4
1.125394328E1,-4.581354442E-4,0.000000000E0,3.054236295E-4
1.126360058E1,-4.581354442E-4,7.635590737E-5,3.054236295E-4
1.127325782E1,-4.581354442E-4,7.635590737E-5,-3.054236295E-4
1.128291506E1,1.527118147E-4,7.635590737E-5,3.054236295E-4
1.129257229E1,1.527118147E-4,7.635590737E-5,9.162708884E-4
1.130222953E1,7.635590737E-4,-1.145338640E-3,9.162708884E-4
1.131188677E1,7.635590737E-4,6.872031372E-4,-3.054236295E-4
1.132154407E1,1.527118147E-4,7.635590737E-5,-3.054236295E-4
1.133120130E1,-4.581354442E-4,7.635590737E-5,-3.054236295E-4
1.134085854E1,-1.068982761E-3,-5.344913807E-4,3.054236295E-4
1.135051578E1,-1.068982761E-3,-5.344913807E-4,-3.054236295E-4
1.136017302E1,1.527118147E-4,-5.344913807E-4,-3.817795368E-4
1.136983032E1,-4.581354442E-4,7.635590737E-5,2.290677221E-4
1.137948756E1,-4.581354442E-4,1.527118147E-4,2.290677221E-4
1.138914479E1,-4.581354442E-4,7.635590737E-4,-3.817795368E-4
1.139880203E1,-4.581354442E-4,1.527118147E-4,-3.817795368E-4
1.140845927E1,1.527118147E-4,1.527118147E-4,-3.817795368E-4
1.141811651E1,1.527118147E-4,7.635590737E-4,2.290677221E-4
1.142777381E1,1.527118147E-4,7.635590737E-4,2.290677221E-4
1.143743104E1,-4.581354442E-4,1.527118147E-4,2.290677221E-4
1.144708828E1,-4.581354442E-4,1.527118147E-4,-3.817795368E-4
1.145674552E1,-4.581354442E-4,7.635590737E-4,2.290677221E-4
1.146640276E1,2.290677221E-4,1.527118147E-4,-3.817795368E-4
1.147606006E1,-3.817795368E-4,1.527118147E-4,-9.926267667E-4
1.148571729E1,2.290677221E-4,7.635590737E-4,-9.926267667E-4
1.149537453E1,2.290677221E-4,7.635590737E-4,-3.817795368E-4
1.150503177E1,8.399150101E-4,1.527118147E-4,-3.817795368E-4
1.151468901E1,2.290677221E-4,1.527118147E-4,2.290677221E-4
1.152434625E1,-3.817795368E-4,1.527118147E-4,-3.817795368E-4
1.153400354E1,2.290677221E-4,7.635590737E-4,2.290677221E-4
1.154366078E1,2.290677221E-4,1.527118147E-4,-3.817795368E-4
1.155331802E1,2.290677221E-4,1.527118147E-4,-9.926267667E-4
1.156297526E1,2.290677221E-4,1.527118147E-4,-3.817795368E-4
1.157263250E1,2.290677221E-4,7.635590737E-4,-3.817795368E-4
1.158228979E1,2.290677221E-4,1.527118147E-4,-3.817795368E-4
1.159194703E1,-3.817795368E-4,1.527118147E-4,2.290677221E-4
1.160160427E1,2.290677221E-4,1.527118147E-4,-3.817795368E-4
1.161126151E1,2.290677221E-4,7.635590737E-4,2.290677221E-4
1.162091875E1,2.290677221E-4,1.527118147E-4,-3.817795368E-4
1.163057604E1,9.162708884E-4,1.527118147E-4,-3.817795368E-4
1.164023328E1,-3.817795368E-4,7.635590737E-5,2.290677221E-4
1.164989052E1,3.054236295E-4,7.635590737E-5,-3.817795368E-4
1.165954776E1,3.054236295E-4,7.635590737E-5,-3.054236295E-4
1.166920500E1,-3.817795368E-4,-5.344913807E-4,3.054236295E-4
1.167886224E1,3.054236295E-4,7.635590737E-5,9.162708884E-4
1.168851953E1,3.054236295E-4,7.635590737E-5,3.054236295E-4
1.169817677E1,-3.817795368E-4,6.872031372E-4,9.162708884E-4
1.170783401E1,2.290677221E-4,7.635590737E-5,-3.054236295E-4
1.171749125E1,2.290677221E-4,0.000000000E0,-9.162708884E-4
1.172714849E1,9.162708884E-4,-6.108472589E-4,3.054236295E-4
1.173680573E1,9.162708884E-4,-6.108472589E-4,-3.054236295E-4
1.174646302E1,2.290677221E-4,0.000000000E0,-3.054236295E-4
1.175612026E1,2.290677221E-4,0.000000000E0,1.527118147E-3
1.176577750E1,8.399150101E-4,-6.108472589E-4,-3.054236295E-4
1.177543474E1,8.399150101E-4,6.108472589E-4,3.817795368E-4
1.178509198E1,2.290677221E-4,-0.000000000E0,3.817795368E-4
1.179474927E1,-3.817795368E-4,6.108472589E-4,3.817795368E-4
1.180440651E1,2.290677221E-4,-0.000000000E0,3.817795368E-4
1.181406375E1,2.290677221E-4,6.108472589E-4,-2.290677221E-4
1.182372099E1,-3.817795368E-4,-0.000000000E0,-8.399150101E-4
1.183337823E1,2.290677221E-4,-6.872031372E-4,3.817795368E-4
1.184303552E1,8.399150101E-4,-7.635590737E-5,-8.399150101E-4
1.185269276E1,2.290677221E-4,-6.872031372E-4,-2.290677221E-4
1.186235000E1,1.527118147E-4,-7.635590737E-5,9.926267667E-4
1.187200724E1,1.527118147E-4,-6.872031372E-4,-2.290677221E-4
1.188166448E1,1.527118147E-4,-7.635590737E-5,-2.290677221E-4
1.189132177E1,-1.068982761E-3,-7.635590737E-5,3.817795368E-4
1.190097901E1,-4.581354442E-4,-7.635590737E-5,-2.290677221E-4
1.191063625E1,1.527118147E-4,-6.872031372E-4,-2.290677221E-4
1.192029349E1,-4.581354442E-4,-7.635590737E-5,-8.399150101E-4
1.192995073E1,1.527118147E-4,-7.635590737E-5,-2.290677221E-4
1.193960802E1,-4.581354442E-4,-7.635590737E-5,-2.290677221E-4
1.194926526E1,-5.344913807E-4,-7.635590737E-5,-2.290677221E-4
1.195892250E1,1.527118147E-4,-7.635590737E-5,3.817795368E-4
1.196857974E1,-5.344913807E-4,-7.635590737E-5,3.817795368E-4
1.197823698E1,7.635590737E-5,-6.872031372E-4,-2.290677221E-4
1.198789422E1,7.635590737E-5,-6.872031372E-4,3.817795368E-4
1.199755151E1,-5.344913807E-4,-7.635590737E-5,3.817795368E-4
1.200720875E1,-5.344913807E-4,-0.000000000E0,-2.290677221E-4
1.201686599E1,7.635590737E-5,-0.000000000E0,-8.399150101E-4
1.202652323E1,7.635590737E-5,-6.108472589E-4,-2.290677221E-4
1.203618047E1,-5.344913807E-4,-0.000000000E0,-2.290677221E-4
1.204583776E1,7.635590737E-5,-0.000000000E0,-2.290677221E-4
1.205549500E1,6.872031372E-4,-0.000000000E0,-8.399150101E-4
1.206515224E1,7.635590737E-5,6.108472589E-4,3.817795368E-4
1.207480948E1,7.635590737E-5,-0.000000000E0,-2.290677221E-4
1.208446672E1,6.872031372E-4,-0.000000000E0,3.817795368E-4
1.209412401E1,6.872031372E-4,-6.108472589E-4,3.817795368E-4
1.210378125E1,7.635590737E-5,0.000000000E0,3.817795368E-4
1.211343849E1,7.635590737E-5,-6.108472589E-4,-2.290677221E-4
1.212309573E1,-5.344913807E-4,-6.108472589E-4,-8.399150101E-4
1.213275297E1,-5.344913807E-4,-6.108472589E-4,-2.290677221E-4
1.214241026E1,-5.344913807E-4,-6.108472589E-4,-2.290677221E-4
1.215206750E1,-5.344913807E-4,-1.221694518E-3,-2.290677221E-4
1.216172474E1,7.635590737E-5,6.108472589E-4,-8.399150101E-4
1.217138198E1,7.635590737E-5,0.000000000E0,-8.399150101E-4
1.218103922E1,7.635590737E-4,7.635590737E-5,-2.290677221E-4
1.219069651E1,7.635590737E-5,7.635590737E-5,-2.290677221E-4
1.220035375E1,7.635590737E-5,-5.344913807E-4,-2.290677221E-4
1.221001099E1,7.635590737E-5,-5.344913807E-4,-2.290677221E-4
1.221966823E1,-5.344913807E-4,7.635590737E-5,3.817795368E-4
1.222932547E1,1.527118147E-4,6.872031372E-4,-2.290677221E-4
1.223898276E1,-5.344913807E-4,-1.145338640E-3,3.817795368E-4
1.224864000E1,-5.344913807E-4,7.635590737E-5,-2.290677221E-4
1.225829724E1,-5.344913807E-4,-5.344913807E-4,-2.290677221E-4
1.226795448E1,1.527118147E-4,7.635590737E-5,-1.527118147E-4
1.227761172E1,1.527118147E-4,-5.344913807E-4,-1.527118147E-4
1.228726901E1,-5.344913807E-4,6.872031372E-4,1.068982761E-3
1.229692625E1,-5.344913807E-4,7.635590737E-5,4.581354442E-4
1.230658349E1,-5.344913807E-4,-4.581354442E-4,-1.527118147E-4
1.231624073E1,1.527118147E-4,1.527118147E-4,4.581354442E-4
1.232589797E1,1.527118147E-4,1.527118147E-4,-1.527118147E-4
1.233555526E1,1.527118147E-4,1.527118147E-4,-7.635590737E-4
1.234521250E1,7.635590737E-4,7.635590737E-4,-1.527118147E-4
1.235486974E1,1.527118147E-4,1.527118147E-4,-1.527118147E-4
1.236452698E1,1.527118147E-4,1.527118147E-4,4.581354442E-4
1.237418427E1,1.527118147E-4,-4.581354442E-4,-1.527118147E-4
1.238384151E1,-4.581354442E-4,1.527118147E-4,4.581354442E-4
1.239349875E1,-4.581354442E-4,1.527118147E-4,-1.527118147E-4
1.240315599E1,1.527118147E-4,-4.581354442E-4,4.581354442E-4
1.241281323E1,-4.581354442E-4,-4.581354442E-4,-1.527118147E-4
1.242247047E1,1.527118147E-4,-4.581354442E-4,-1.527118147E-4
1.243212776E1,1.527118147E-4,1.527118147E-4,5.344913807E-4
1.244178500E1,1.527118147E-4,1.527118147E-4,5.344913807E-4
1.245144224E1,1.527118147E-4,1.527118147E-4,-7.635590737E-5
1.246109948E1,1.527118147E-4,1.527118147E-4,-7.635590737E-5
1.247075677E1,1.527118147E-4,1.527118147E-4,-7.635590737E-5
1.248041401E1,1.527118147E-4,1.527118147E-4,-7.635590737E-5
1.249007125E1,1.527118147E-4,7.635590737E-4,5.344913807E-4
1.249972849E1,-4.581354442E-4,-3.817795368E-4,-7.635590737E-5
1.250938573E1,1.527118147E-4,-3.817795368E-4,-7.635590737E-5
1.251904302E1,1.527118147E-4,2.290677221E-4,-7.635590737E-5
1.252870026E1,1.527118147E-4,2.290677221E-4,5.344913807E-4
1.253835750E1,1.527118147E-4,-3.817795368E-4,4.581354442E-4
1.254801474E1,1.527118147E-4,-3.817795368E-4,4.581354442E-4
1.255767198E1,-4.581354442E-4,-3.817795368E-4,4.581354442E-4
1.256732927E1,1.527118147E-4,2.290677221E-4,-1.527118147E-4
1.257698651E1,-1.068982761E-3,-4.581354442E-4,-7.635590737E-4
1.258664375E1,-4.581354442E-4,1.527118147E-4,-1.527118147E-4
1.259630099E1,-4.581354442E-4,1.527118147E-4,-1.527118147E-4
1.260595823E1,1.527118147E-4,1.527118147E-4,-1.527118147E-4
1.261561552E1,-4.581354442E-4,1.527118147E-4,-7.635590737E-4
1.262527276E1,-4.581354442E-4,1.527118147E-4,-1.527118147E-4
1.263493000E1,1.527118147E-4,1.527118147E-4,-1.527118147E-4
1.264458724E1,7.635590737E-4,-4.581354442E-4,4.581354442E-4
1.265424448E1,1.527118147E-4,-4.581354442E-4,-1.527118147E-4
1.266390177E1,7.635590737E-4,1.527118147E-4,-1.527118147E-4
1.267355901E1,7.635590737E-4,1.527118147E-4,-1.527118147E-4
1.268321625E1,1.527118147E-4,-4.581354442E-4,-1.527118147E-4
1.269287349E1,-4.581354442E-4,1.527118147E-4,-1.527118147E-4
1.270253078E1,1.527118147E-4,7.635590737E-4,-1.527118147E-4
1.271218802E1,1.527118147E-4,7.635590737E-4,4.581354442E-4
1.272184526E1,-4.581354442E-4,1.527118147E-4,-1.527118147E-4
1.273150250E1,1.527118147E-4,7.635590737E-4,4.581354442E-4
1.274115974E1,-4.581354442E-4,7.635590737E-4,4.581354442E-4
1.275081703E1,-4.581354442E-4,1.527118147E-4,-1.527118147E-4
1.276047427E1,-4.581354442E-4,1.527118147E-4,4.581354442E-4
1.277013151E1,-4.581354442E-4,7.635590737E-4,-1.527118147E-4
1.277978875E1,1.527118147E-4,1.527118147E-4,-1.527118147E-4
1.278944599E1,1.527118147E-4,1.527118147E-4,-1.527118147E-4
1.279910328E1,1.527118147E-4,-4.581354442E-4,-1.527118147E-4
1.280876052E1,1.527118147E-4,-4.581354442E-4,-1.527118147E-4
1.281841776E1,1.527118147E-4,7.635590737E-4,-1.527118147E-4
1.282807500E1,7.635590737E-4,1.527118147E-4,-1.527118147E-4
1.283773229E1,-4.581354442E-4,-4.581354442E-4,-7.635590737E-4
1.284738953E1,-4.581354442E-4,-4.581354442E-4,-1.527118147E-4
1.285704677E1,1.527118147E-4,-4.581354442E-4,-1.527118147E-4
1.286670401E1,1.527118147E-4,1.527118147E-4,-7.635590737E-4
1.287636125E1,-4.581354442E-4,7.635590737E-4,-1.527118147E-4
1.288601854E1,1.527118147E-4,1.527118147E-4,-1.527118147E-4
1.289567578E1,1.527118147E-4,-4.581354442E-4,4.581354442E-4
1.290533302E1,-4.581354442E-4,-4.581354442E-4,-1.527118147E-4
1.291499026E1,1.527118147E-4,-4.581354442E-4,4.581354442E-4
1.292464756E1,-4.581354442E-4,-4.581354442E-4,4.581354442E-4
1.293430479E1,1.527118147E-4,-4.581354442E-4,1.068982761E-3
1.294396203E1,-4.581354442E-4,1.527118147E-4,1.068982761E-3
1.295361927E1,1.527118147E-4,-4.581354442E-4,-1.527118147E-4
1.296327651E1,1.527118147E-4,7.635590737E-5,-1.527118147E-4
1.297293375E1,1.527118147E-4,-5.344913807E-4,4.581354442E-4
1.298259104E1,-4.581354442E-4,7.635590737E-5,-1.527118147E-4
1.299224828E1,-4.581354442E-4,7.635590737E-5,4.581354442E-4
1.300190552E1,1.527118147E-4,-5.344913807E-4,-1.527118147E-4
1.301156276E1,1.527118147E-4,-5.344913807E-4,4.581354442E-4
1.302122006E1,1.527118147E-4,7.635590737E-5,-7.635590737E-4
1.303087729E1,1.527118147E-4,-5.344913807E-4,-1.527118147E-4
1.304053453E1,-4.581354442E-4,-5.344913807E-4,4.581354442E-4
1.305019177E1,-4.581354442E-4,-5.344913807E-4,-1.527118147E-4
1.305984901E1,-4.581354442E-4,7.635590737E-5,-1.527118147E-4
1.306950630E1,-4.581354442E-4,7.635590737E-5,-1.527118147E-4
1.307916354E1,1.527118147E-4,7.635590737E-5,-1.527118147E-4
1.308882078E1,1.527118147E-4,7.635590737E-5,4.581354442E-4
1.309847802E1,1.527118147E-4,-5.344913807E-4,-1.527118147E-4
1.310813532E1,2.290677221E-4,7.635590737E-4,-1.527118147E-4
1.311779256E1,8.399150101E-4,7.635590737E-4,-7.635590737E-4
1.312744979E1,8.399150101E-4,-4.581354442E-4,4.581354442E-4
1.313710703E1,2.290677221E-4,1.527118147E-4,4.581354442E-4
1.314676427E1,2.290677221E-4,-4.581354442E-4,4.581354442E-4
1.315642156E1,-4.581354442E-4,-4.581354442E-4,4.581354442E-4
1.316607881E1,-4.581354442E-4,1.527118147E-4,4.581354442E-4
1.317573604E1,2.290677221E-4,1.527118147E-4,4.581354442E-4
1.318539328E1,2.290677221E-4,7.635590737E-4,-1.527118147E-4
1.319505058E1,8.399150101E-4,1.527118147E-4,-1.527118147E-4
1.320470782E1,8.399150101E-4,1.527118147E-4,4.581354442E-4
1.321436506E1,-4.581354442E-4,-4.581354442E-4,-1.527118147E-4
1.322402229E1,2.290677221E-4,1.527118147E-4,4.581354442E-4
1.323367953E1,2.290677221E-4,1.527118147E-4,-7.635590737E-4
1.324333682E1,8.399150101E-4,1.527118147E-4,-7.635590737E-4
1.325299407E1,2.290677221E-4,1.527118147E-4,-1.527118147E-4
1.326265130E1,-4.581354442E-4,-4.581354442E-4,-7.635590737E-4
1.327230860E1,2.290677221E-4,7.635590737E-4,-1.527118147E-4
1.328196584E1,-4.581354442E-4,2.290677221E-4,-7.635590737E-4
1.329162308E1,2.290677221E-4,2.290677221E-4,3.817795368E-4
1.330128032E1,1.527118147E-4,-3.817795368E-4,-2.290677221E-4
1.331093756E1,-4.581354442E-4,2.290677221E-4,-2.290677221E-4
1.332059485E1,1.527118147E-4,2.290677221E-4,-2.290677221E-4
1.333025209E1,-4.581354442E-4,2.290677221E-4,-2.290677221E-4
1.333990932E1,7.635590737E-4,-3.817795368E-4,-2.290677221E-4
1.334956657E1,1.527118147E-4,-3.817795368E-4,-2.290677221E-4
1.335922386E1,1.527118147E-4,-3.817795368E-4,-2.290677221E-4
1.336888110E1,1.527118147E-4,1.527118147E-4,3.817795368E-4
1.337853834E1,1.527118147E-4,-4.581354442E-4,3.817795368E-4
1.338819558E1,1.527118147E-4,-4.581354442E-4,-8.399150101E-4
1.339785282E1,7.635590737E-4,1.527118147E-4,-2.290677221E-4
1.340751011E1,1.527118147E-4,1.527118147E-4,-1.527118147E-4
1.341716735E1,1.527118147E-4,-4.581354442E-4,-7.635590737E-4
1.342682459E1,-4.581354442E-4,-4.581354442E-4,-1.527118147E-4
1.343648183E1,1.527118147E-4,-4.581354442E-4,4.581354442E-4
1.344613906E1,7.635590737E-4,-4.581354442E-4,4.581354442E-4
1.345579636E1,1.527118147E-4,-4.581354442E-4,4.581354442E-4
1.346545360E1,-5.344913807E-4,-4.581354442E-4,-1.527118147E-4
1.347511084E1,-5.344913807E-4,-4.581354442E-4,-1.527118147E-4
1.348476808E1,-5.344913807E-4,7.635590737E-4,-1.527118147E-4
1.349442537E1,7.635590737E-5,1.527118147E-4,-1.527118147E-4
1.350408261E1,-5.344913807E-4,1.527118147E-4,4.581354442E-4
1.351373985E1,7.635590737E-5,1.527118147E-4,4.581354442E-4
1.352339709E1,7.635590737E-5,1.527118147E-4,4.581354442E-4
1.353305438E1,-1.145338640E-3,1.527118147E-4,4.581354442E-4
1.354271162E1,-5.344913807E-4,1.527118147E-4,4.581354442E-4
1.355236886E1,7.635590737E-5,1.527118147E-4,4.581354442E-4
1.356202610E1,6.872031372E-4,7.635590737E-4,4.581354442E-4
1.357168339E1,6.872031372E-4,-4.581354442E-4,4.581354442E-4
1.358134063E1,7.635590737E-5,2.290677221E-4,-1.527118147E-4
1.359099787E1,-5.344913807E-4,8.399150101E-4,4.581354442E-4
1.360065511E1,7.635590737E-5,2.290677221E-4,-1.527118147E-4
1.361031235E1,7.635590737E-5,2.290677221E-4,-1.527118147E-4
1.361996964E1,-5.344913807E-4,-3.817795368E-4,-7.635590737E-4
1.362962688E1,7.635590737E-5,-3.817795368E-4,-7.635590737E-4
1.363928412E1,7.635590737E-5,-3.817795368E-4,-1.527118147E-4
1.364894136E1,7.635590737E-5,-3.817795368E-4,4.581354442E-4
1.365859865E1,7.635590737E-5,-3.817795368E-4,-1.527118147E-4
1.366825589E1,7.635590737E-5,-3.817795368E-4,-1.527118147E-4
1.367791313E1,6.872031372E-4,2.290677221E-4,-7.635590737E-4
1.368757037E1,7.635590737E-5,2.290677221E-4,-1.527118147E-4
1.369722766E1,-5.344913807E-4,2.290677221E-4,4.581354442E-4
1.370688490E1,7.635590737E-5,2.290677221E-4,-1.527118147E-4
1.371654214E1,-5.344913807E-4,-3.817795368E-4,4.581354442E-4
1.372619938E1,-5.344913807E-4,2.290677221E-4,-1.527118147E-4
1.373585662E1,7.635590737E-5,2.290677221E-4,-1.527118147E-4
1.374551391E1,7.635590737E-5,2.290677221E-4,-1.527118147E-4
1.375517115E1,6.872031372E-4,8.399150101E-4,4.581354442E-4
1.376482839E1,7.635590737E-5,8.399150101E-4,1.068982761E-3
1.377448563E1,7.635590737E-5,2.290677221E-4,1.068982761E-3
1.378414292E1,7.635590737E-5,-3.817795368E-4,4.581354442E-4
1.379380016E1,7.635590737E-5,2.290677221E-4,-1.527118147E-4
1.380345740E1,7.635590737E-5,2.290677221E-4,4.581354442E-4
1.381311464E1,-5.344913807E-4,2.290677221E-4,4.581354442E-4
1.382277193E1,7.635590737E-5,-9.926267667E-4,4.581354442E-4
1.383242917E1,7.635590737E-5,2.290677221E-4,-1.527118147E-4
1.384208641E1,-5.344913807E-4,2.290677221E-4,4.581354442E-4
1.385174365E1,-5.344913807E-4,-3.817795368E-4,4.581354442E-4
1.386140094E1,7.635590737E-5,2.290677221E-4,4.581354442E-4
1.387105818E1,-5.344913807E-4,2.290677221E-4,-1.527118147E-4
1.388071542E1,7.635590737E-5,2.290677221E-4,-1.527118147E-4
1.389037266E1,-5.344913807E-4,7.635590737E-4,-1.527118147E-4
1.390002995E1,-5.344913807E-4,1.527118147E-4,3.817795368E-4
1.390968719E1,-1.145338640E-3,1.527118147E-4,-8.399150101E-4
1.391934443E1,-5.344913807E-4,-4.581354442E-4,-2.290677221E-4
1.392900167E1,7.635590737E-5,-4.581354442E-4,-2.290677221E-4
1.393865896E1,7.635590737E-5,1.374406274E-3,3.817795368E-4
1.394831620E1,7.635590737E-5,1.527118147E-4,-2.290677221E-4
1.395797344E1,7.635590737E-5,-4.581354442E-4,-2.290677221E-4
1.396763068E1,7.635590737E-5,1.527118147E-4,-2.290677221E-4
1.397728797E1,1.527118147E-4,1.527118147E-4,-2.290677221E-4
1.398694521E1,1.527118147E-4,-4.581354442E-4,3.817795368E-4
1.399660245E1,1.527118147E-4,1.527118147E-4,-2.290677221E-4
1.400625969E1,1.527118147E-4,1.527118147E-4,3.817795368E-4
1.401591698E1,1.527118147E-4,1.527118147E-4,-2.290677221E-4
1.402557422E1,1.527118147E-4,7.635590737E-4,3.817795368E-4
1.403523146E1,7.635590737E-4,7.635590737E-4,-8.399150101E-4
1.404488870E1,1.527118147E-4,1.527118147E-4,-8.399150101E-4
1.405454599E1,-4.581354442E-4,7.635590737E-4,3.817795368E-4
1.406420323E1,-4.581354442E-4,7.635590737E-4,-2.290677221E-4
1.407386047E1,1.527118147E-4,1.527118147E-4,-2.290677221E-4
1.408351771E1,-4.581354442E-4,1.527118147E-4,-8.399150101E-4
1.409317500E1,1.527118147E-4,1.527118147E-4,-2.290677221E-4
1.410283224E1,-4.581354442E-4,1.527118147E-4,-8.399150101E-4
1.411248948E1,1.527118147E-4,-4.581354442E-4,3.817795368E-4
1.412214672E1,1.527118147E-4,1.527118147E-4,-2.290677221E-4
1.413180396E1,-4.581354442E-4,6.872031372E-4,9.926267667E-4
1.414146125E1,-4.581354442E-4,6.872031372E-4,-2.290677221E-4
1.415111849E1,1.527118147E-4,6.872031372E-4,-2.290677221E-4
1.416077573E1,-4.581354442E-4,6.872031372E-4,3.817795368E-4
1.417043297E1,-4.581354442E-4,7.635590737E-5,3.817795368E-4
1.418009026E1,-4.581354442E-4,7.635590737E-5,-2.290677221E-4
1.418974750E1,-4.581354442E-4,7.635590737E-5,9.926267667E-4
1.419940474E1,1.527118147E-4,-5.344913807E-4,3.817795368E-4
1.420906198E1,8.399150101E-4,7.635590737E-5,-2.290677221E-4
1.421871927E1,8.399150101E-4,7.635590737E-5,-8.399150101E-4
1.422837651E1,-4.581354442E-4,7.635590737E-5,-2.290677221E-4
1.423803375E1,1.527118147E-4,7.635590737E-5,3.817795368E-4
1.424769104E1,1.527118147E-4,-5.344913807E-4,3.817795368E-4
1.425734828E1,1.527118147E-4,6.108472589E-4,-2.290677221E-4
1.426700552E1,8.399150101E-4,0.000000000E0,-2.290677221E-4
1.427666276E1,-4.581354442E-4,-1.221694518E-3,-2.290677221E-4
1.428632000E1,-4.581354442E-4,-6.108472589E-4,-8.399150101E-4
1.429597729E1,2.290677221E-4,0.000000000E0,-8.399150101E-4
1.430563453E1,2.290677221E-4,-6.108472589E-4,-2.290677221E-4
1.431529177E1,2.290677221E-4,-6.108472589E-4,-8.399150101E-4
1.432494906E1,2.290677221E-4,-6.108472589E-4,-2.290677221E-4
1.433460631E1,-4.581354442E-4,-0.000000000E0,3.817795368E-4
1.434426354E1,2.290677221E-4,1.221694518E-3,-2.290677221E-4
1.435392078E1,2.290677221E-4,-6.108472589E-4,-1.527118147E-4
1.436357802E1,-4.581354442E-4,-0.000000000E0,-7.635590737E-4
1.437323532E1,2.290677221E-4,-6.108472589E-4,-7.635590737E-4
1.438289256E1,2.290677221E-4,-0.000000000E0,1.068982761E-3
1.439254979E1,2.290677221E-4,-6.108472589E-4,4.581354442E-4
1.440220703E1,2.290677221E-4,-0.000000000E0,-1.527118147E-4
1.441186433E1,2.290677221E-4,-6.108472589E-4,-1.527118147E-4
1.442152156E1,2.290677221E-4,-0.000000000E0,-1.527118147E-4
1.443117880E1,-4.581354442E-4,-6.108472589E-4,-1.527118147E-4
1.444083610E1,2.290677221E-4,-0.000000000E0,-1.527118147E-4
1.445049334E1,-4.581354442E-4,-0.000000000E0,4.581354442E-4
1.446015058E1,-4.581354442E-4,-0.000000000E0,4.581354442E-4
1.446980782E1,2.290677221E-4,-0.000000000E0,-1.527118147E-4
1.447946511E1,-4.581354442E-4,-0.000000000E0,-1.527118147E-4
1.448912235E1,-4.581354442E-4,-0.000000000E0,-7.635590737E-4
1.449877959E1,2.290677221E-4,-0.000000000E0,-1.527118147E-4
1.450843682E1,8.399150101E-4,-6.108472589E-4,-1.527118147E-4
1.451809412E1,1.527118147E-4,0.000000000E0,4.581354442E-4
1.452775136E1,1.527118147E-4,-6.108472589E-4,-1.527118147E-4
1.453740860E1,-4.581354442E-4,-6.108472589E-4,4.581354442E-4
1.454706584E1,-4.581354442E-4,0.000000000E0,4.581354442E-4
1.455672313E1,-4.581354442E-4,0.000000000E0,-1.527118147E-4
1.456638037E1,8.399150101E-4,-5.344913807E-4,-7.635590737E-4
1.457603761E1,1.527118147E-4,-5.344913807E-4,-7.635590737E-5
1.458569485E1,-4.581354442E-4,7.635590737E-5,-7.635590737E-5
1.459535214E1,8.399150101E-4,7.635590737E-5,-7.635590737E-5
1.460500938E1,8.399150101E-4,6.872031372E-4,-6.872031372E-4
1.461466662E1,1.527118147E-4,-5.344913807E-4,-7.635590737E-5
1.462432386E1,1.527118147E-4,-5.344913807E-4,5.344913807E-4
1.463398115E1,1.527118147E-4,7.635590737E-5,-7.635590737E-5
1.464363839E1,1.527118147E-4,7.635590737E-5,1.145338640E-3
1.465329563E1,1.527118147E-4,7.635590737E-5,-7.635590737E-5
1.466295287E1,7.635590737E-4,7.635590737E-5,-7.635590737E-5
1.467261016E1,1.527118147E-4,7.635590737E-5,-7.635590737E-5
1.468226740E1,-4.581354442E-4,1.527118147E-4,-7.635590737E-5
1.469192464E1,1.527118147E-4,1.527118147E-4,-7.635590737E-5
1.470158193E1,7.635590737E-4,-4.581354442E-4,-7.635590737E-5
1.471123917E1,1.527118147E-4,1.527118147E-4,-7.635590737E-5
1.472089641E1,1.527118147E-4,1.527118147E-4,-6.872031372E-4
1.473055365E1,1.527118147E-4,1.527118147E-4,-7.635590737E-5
1.474021094E1,7.635590737E-4,1.527118147E-4,-7.635590737E-5
1.474986818E1,1.527118147E-4,1.527118147E-4,-7.635590737E-5
1.475952542E1,1.527118147E-4,1.527118147E-4,-7.635590737E-5
1.476918266E1,1.527118147E-4,1.527118147E-4,5.344913807E-4
1.477883995E1,1.527118147E-4,1.527118147E-4,-7.635590737E-5
1.478849719E1,-4.581354442E-4,7.635590737E-4,5.344913807E-4
1.479815443E1,-1.068982761E-3,1.527118147E-4,-6.872031372E-4
1.480781167E1,-1.145338640E-3,1.527118147E-4,-7.635590737E-5
1.481746896E1,-4.581354442E-4,-4.581354442E-4,-7.635590737E-5
1.482712620E1,-5.344913807E-4,7.635590737E-4,5.344913807E-4
1.483678344E1,1.527118147E-4,1.527118147E-4,-6.872031372E-4
1.484644068E1,-5.344913807E-4,1.527118147E-4,-7.635590737E-5
1.485609797E1,7.635590737E-5,-4.581354442E-4,5.344913807E-4
1.486575521E1,7.635590737E-4,-4.581354442E-4,5.344913807E-4
1.487541245E1,-5.344913807E-4,1.527118147E-4,-7.635590737E-5
1.488506969E1,-5.344913807E-4,-4.581354442E-4,-7.635590737E-5
1.489472698E1,7.635590737E-5,1.527118147E-4,-7.635590737E-5
1.490438422E1,-5.344913807E-4,1.527118147E-4,5.344913807E-4
1.491404146E1,-5.344913807E-4,-4.581354442E-4,-7.635590737E-5
1.492369870E1,7.635590737E-5,1.527118147E-4,5.344913807E-4
1.493335599E1,-5.344913807E-4,-4.581354442E-4,5.344913807E-4
1.494301323E1,7.635590737E-5,7.635590737E-4,5.344913807E-4
1.495267047E1,7.635590737E-5,-4.581354442E-4,5.344913807E-4
1.496232776E1,-5.344913807E-4,-4.581354442E-4,-7.635590737E-5
1.497198500E1,7.635590737E-5,-4.581354442E-4,5.344913807E-4
1.498164224E1,7.635590737E-5,1.527118147E-4,5.344913807E-4
1.499129948E1,-5.344913807E-4,1.527118147E-4,5.344913807E-4
1.500095677E1,-1.145338640E-3,-1.068982761E-3,5.344913807E-4
1.501061401E1,-5.344913807E-4,-4.581354442E-4,-7.635590737E-5
1.502027125E1,7.635590737E-5,-4.581354442E-4,5.344913807E-4
1.502992849E1,-5.344913807E-4,1.527118147E-4,-7.635590737E-5
1.503958578E1,1.527118147E-4,1.527118147E-4,-6.872031372E-4
1.504924302E1,1.527118147E-4,7.635590737E-4,-7.635590737E-5
1.505890026E1,1.527118147E-4,1.527118147E-4,-6.872031372E-4
1.506855756E1,1.374406274E-3,-4.581354442E-4,-7.635590737E-5
1.507821479E1,7.635590737E-4,-4.581354442E-4,-7.635590737E-5
1.508787203E1,-4.581354442E-4,1.527118147E-4,-7.635590737E-5
1.509752927E1,-4.581354442E-4,1.527118147E-4,5.344913807E-4
1.510718657E1,1.527118147E-4,-4.581354442E-4,4.581354442E-4
1.511684380E1,1.527118147E-4,1.527118147E-4,4.581354442E-4
1.512650104E1,1.527118147E-4,1.527118147E-4,-1.527118147E-4
1.513615828E1,1.527118147E-4,-4.581354442E-4,-7.635590737E-4
1.514581558E1,1.527118147E-4,-4.581354442E-4,-7.635590737E-4
1.515547282E1,-4.581354442E-4,-4.581354442E-4,-1.527118147E-4
1.516513006E1,-4.581354442E-4,1.527118147E-4,4.581354442E-4
1.517478729E1,-4.581354442E-4,1.527118147E-4,-1.527118147E-4
1.518444459E1,-4.581354442E-4,1.527118147E-4,-7.635590737E-4
1.519410182E1,2.290677221E-4,7.635590737E-4,-1.527118147E-4
1.520375907E1,2.290677221E-4,1.527118147E-4,4.581354442E-4
1.521341636E1,2.290677221E-4,1.527118147E-4,-1.527118147E-4
1.522307360E1,2.290677221E-4,1.527118147E-4,4.581354442E-4
1.523273084E1,-3.817795368E-4,7.635590737E-4,-1.527118147E-4
1.524238808E1,-3.817795368E-4,1.527118147E-4,4.581354442E-4
1.525204537E1,2.290677221E-4,1.527118147E-4,4.581354442E-4
1.526170261E1,2.290677221E-4,1.527118147E-4,4.581354442E-4
1.527135985E1,-3.817795368E-4,8.399150101E-4,4.581354442E-4
1.528101714E1,-3.817795368E-4,2.290677221E-4,4.581354442E-4
1.529067438E1,-9.926267667E-4,8.399150101E-4,-1.527118147E-4
1.530033162E1,2.290677221E-4,2.290677221E-4,-1.527118147E-4
1.530998886E1,2.290677221E-4,-3.817795368E-4,4.581354442E-4
1.531964615E1,-3.817795368E-4,-3.817795368E-4,-1.527118147E-4
1.532930339E1,2.290677221E-4,2.290677221E-4,4.581354442E-4
1.533896063E1,2.290677221E-4,2.290677221E-4,-1.527118147E-4
1.534861787E1,-3.817795368E-4,2.290677221E-4,-1.527118147E-4
1.535827516E1,2.290677221E-4,1.527118147E-4,4.581354442E-4
1.536793240E1,2.290677221E-4,1.527118147E-4,4.581354442E-4
1.537758964E1,2.290677221E-4,1.527118147E-4,-1.527118147E-4
1.538724688E1,2.290677221E-4,7.635590737E-4,4.581354442E-4
1.539690417E1,2.290677221E-4,1.527118147E-4,1.068982761E-3
1.540656141E1,8.399150101E-4,1.527118147E-4,1.068982761E-3
1.541621865E1,2.290677221E-4,1.527118147E-4,4.581354442E-4
1.542587589E1,2.290677221E-4,7.635590737E-4,1.068982761E-3
1.543553318E1,2.290677221E-4,1.527118147E-4,-1.527118147E-4
1.544519042E1,-3.817795368E-4,1.527118147E-4,-1.527118147E-4
1.545484766E1,-3.817795368E-4,-4.581354442E-4,3.817795368E-4
1.546450495E1,-3.817795368E-4,1.527118147E-4,3.817795368E-4
1.547416219E1,8.399150101E-4,1.527118147E-4,-2.290677221E-4
1.548381943E1,-3.817795368E-4,1.527118147E-4,-8.399150101E-4
1.549347667E1,-3.817795368E-4,7.635590737E-4,-1.450762269E-3
1.550313396E1,-3.817795368E-4,-4.581354442E-4,-2.290677221E-4
1.551279120E1,2.290677221E-4,7.635590737E-5,-8.399150101E-4
1.552244844E1,2.290677221E-4,7.635590737E-5,-2.290677221E-4
1.553210573E1,-3.817795368E-4,6.872031372E-4,-2.290677221E-4
1.554176297E1,-3.817795368E-4,7.635590737E-5,9.926267667E-4
1.555142021E1,-3.817795368E-4,-5.344913807E-4,-2.290677221E-4
1.556107745E1,-3.817795368E-4,6.872031372E-4,3.817795368E-4
1.557073474E1,2.290677221E-4,6.872031372E-4,-2.290677221E-4
1.558039198E1,2.290677221E-4,7.635590737E-5,3.817795368E-4
1.559004922E1,2.290677221E-4,7.635590737E-5,3.817795368E-4
1.559970651E1,2.290677221E-4,-5.344913807E-4,-9.162708884E-4
1.560936375E1,-3.817795368E-4,-5.344913807E-4,3.054236295E-4
1.561902099E1,-3.817795368E-4,-5.344913807E-4,-3.054236295E-4
1.562867823E1,-3.817795368E-4,7.635590737E-5,3.054236295E-4
1.563833552E1,2.290677221E-4,0.000000000E0,-3.054236295E-4
1.564799276E1,2.290677221E-4,0.000000000E0,-3.054236295E-4
1.565765000E1,2.290677221E-4,0.000000000E0,-3.054236295E-4
1.566730724E1,2.290677221E-4,0.000000000E0,3.054236295E-4
1.567696453E1,2.290677221E-4,0.000000000E0,3.054236295E-4
1.568662177E1,8.399150101E-4,-6.108472589E-4,-3.054236295E-4
1.569627901E1,-3.817795368E-4,0.000000000E0,-3.054236295E-4
1.570593631E1,8.399150101E-4,0.000000000E0,9.162708884E-4
1.571559354E1,2.290677221E-4,6.108472589E-4,3.054236295E-4
1.572525078E1,2.290677221E-4,-6.108472589E-4,-3.054236295E-4
1.573490802E1,-3.817795368E-4,-6.108472589E-4,-3.054236295E-4
1.574456532E1,2.290677221E-4,0.000000000E0,-3.054236295E-4
1.575422256E1,2.290677221E-4,6.108472589E-4,-3.054236295E-4
1.576387979E1,2.290677221E-4,-0.000000000E0,3.054236295E-4
1.577353709E1,-3.817795368E-4,-0.000000000E0,3.054236295E-4
1.578319432E1,-3.817795368E-4,-0.000000000E0,-9.162708884E-4
1.579285157E1,-3.817795368E-4,-0.000000000E0,-9.162708884E-4
1.580250880E1,2.290677221E-4,-0.000000000E0,3.054236295E-4
1.581216610E1,2.290677221E-4,-0.000000000E0,3.054236295E-4
1.582182334E1,-3.817795368E-4,-6.108472589E-4,3.054236295E-4
1.583148058E1,-3.817795368E-4,0.000000000E0,-2.290677221E-4
1.584113787E1,2.290677221E-4,0.000000000E0,-1.450762269E-3
1.585079511E1,-3.817795368E-4,0.000000000E0,-2.290677221E-4
1.586045235E1,2.290677221E-4,0.000000000E0,-2.290677221E-4
1.587010959E1,2.290677221E-4,0.000000000E0,3.817795368E-4
1.587976688E1,2.290677221E-4,0.000000000E0,3.817795368E-4
1.588942412E1,2.290677221E-4,-6.108472589E-4,3.817795368E-4
1.589908136E1,-3.817795368E-4,0.000000000E0,-2.290677221E-4
1.590873860E1,2.290677221E-4,-1.221694518E-3,-2.290677221E-4
1.591839589E1,-3.817795368E-4,0.000000000E0,-8.399150101E-4
1.592805313E1,-3.817795368E-4,0.000000000E0,-2.290677221E-4
1.593771037E1,-3.817795368E-4,6.108472589E-4,-8.399150101E-4
1.594736766E1,2.290677221E-4,6.108472589E-4,-2.290677221E-4
1.595702490E1,2.290677221E-4,0.000000000E0,-2.290677221E-4
1.596668214E1,8.399150101E-4,0.000000000E0,-8.399150101E-4
1.597633938E1,-3.817795368E-4,0.000000000E0,-2.290677221E-4
1.598599667E1,2.290677221E-4,-6.108472589E-4,-2.290677221E-4
1.599565391E1,-3.817795368E-4,0.000000000E0,-2.290677221E-4
1.600531115E1,2.290677221E-4,0.000000000E0,-2.290677221E-4
1.601496844E1,8.399150101E-4,7.635590737E-5,-8.399150101E-4
1.602462568E1,2.290677221E-4,7.635590737E-5,3.817795368E-4
1.603428292E1,2.290677221E-4,7.635590737E-5,3.817795368E-4
1.604394016E1,-3.817795368E-4,-5.344913807E-4,3.817795368E-4
1.605359745E1,-3.817795368E-4,-5.344913807E-4,-2.290677221E-4
1.606325469E1,8.399150101E-4,7.635590737E-5,-8.399150101E-4
1.607291193E1,8.399150101E-4,6.872031372E-4,-1.527118147E-4
1.608256922E1,2.290677221E-4,-5.344913807E-4,-1.527118147E-4
1.609222646E1,2.290677221E-4,7.635590737E-5,-7.635590737E-4
1.610188370E1,-3.817795368E-4,7.635590737E-5,-1.527118147E-4
1.611154094E1,8.399150101E-4,7.635590737E-5,4.581354442E-4
1.612119823E1,2.290677221E-4,7.635590737E-5,-1.527118147E-4
1.613085547E1,2.290677221E-4,6.872031372E-4,-1.527118147E-4
1.614051271E1,-3.817795368E-4,7.635590737E-5,4.581354442E-4
1.615017000E1,-1.068982761E-3,7.635590737E-5,-1.527118147E-4
1.615982724E1,2.290677221E-4,-5.344913807E-4,4.581354442E-4
1.616948448E1,-4.581354442E-4,7.635590737E-5,-1.527118147E-4
1.617914177E1,-4.581354442E-4,7.635590737E-5,-1.527118147E-4
1.618879901E1,2.290677221E-4,-5.344913807E-4,-6.872031372E-4
1.619845625E1,-4.581354442E-4,-5.344913807E-4,-6.872031372E-4
1.620811349E1,2.290677221E-4,-5.344913807E-4,5.344913807E-4
1.621777078E1,-4.581354442E-4,-5.344913807E-4,5.344913807E-4
1.622742802E1,-4.581354442E-4,-5.344913807E-4,5.344913807E-4
1.623708526E1,-4.581354442E-4,7.635590737E-5,5.344913807E-4
1.624674256E1,1.527118147E-4,7.635590737E-5,5.344913807E-4
1.625639979E1,1.527118147E-4,7.635590737E-5,-7.635590737E-5
1.626605703E1,-4.581354442E-4,7.635590737E-5,-6.872031372E-4
1.627571427E1,1.527118147E-4,6.872031372E-4,-6.872031372E-4
1.628537157E1,1.527118147E-4,7.635590737E-5,-7.635590737E-5
1.629502880E1,-4.581354442E-4,7.635590737E-5,-7.635590737E-5
1.630468604E1,1.527118147E-4,7.635590737E-5,5.344913807E-4
1.631434334E1,1.527118147E-4,7.635590737E-5,-7.635590737E-5
1.632400058E1,1.527118147E-4,7.635590737E-5,-6.872031372E-4
1.633365782E1,1.527118147E-4,7.635590737E-5,-7.635590737E-5
1.634331506E1,1.527118147E-4,7.635590737E-5,-7.635590737E-5
1.635297235E1,1.527118147E-4,7.635590737E-5,-6.872031372E-4
1.636262959E1,1.527118147E-4,7.635590737E-5,-7.635590737E-5
1.637228682E1,1.527118147E-4,-5.344913807E-4,-7.635590737E-5
1.638194412E1,1.527118147E-4,7.635590737E-5,-7.635590737E-5
1.639160136E1,8.399150101E-4,-5.344913807E-4,-6.872031372E-4
1.640125860E1,1.527118147E-4,-5.344913807E-4,5.344913807E-4
1.641091589E1,-4.581354442E-4,7.635590737E-5,-7.635590737E-5
1.642057313E1,1.527118147E-4,-5.344913807E-4,-7.635590737E-5
1.643023037E1,1.527118147E-4,7.635590737E-5,-6.872031372E-4
1.643988761E1,-4.581354442E-4,-5.344913807E-4,-6.872031372E-4
1.644954490E1,2.290677221E-4,6.872031372E-4,-7.635590737E-5
1.645920214E1,8.399150101E-4,-5.344913807E-4,-7.635590737E-5
1.646885938E1,2.290677221E-4,-5.344913807E-4,5.344913807E-4
1.647851667E1,8.399150101E-4,-5.344913807E-4,-7.635590737E-5
1.648817391E1,2.290677221E-4,1.527118147E-4,-7.635590737E-5
1.649783115E1,-4.581354442E-4,1.527118147E-4,-7.635590737E-5
1.650748844E1,2.290677221E-4,1.527118147E-4,6.108472589E-4
1.651714568E1,2.290677221E-4,7.635590737E-4,-0.000000000E0
1.652680292E1,-4.581354442E-4,1.527118147E-4,-1.221694518E-3
1.653646016E1,8.399150101E-4,1.527118147E-4,-6.108472589E-4
1.654611745E1,1.527118147E-4,1.527118147E-4,-0.000000000E0
1.655577469E1,-4.581354442E-4,1.527118147E-4,-6.108472589E-4
1.656543193E1,8.399150101E-4,7.635590737E-4,6.108472589E-4
1.657508922E1,1.527118147E-4,1.527118147E-4,6.108472589E-4
1.658474646E1,7.635590737E-4,-4.581354442E-4,-0.000000000E0
1.659440370E1,7.635590737E-4,7.635590737E-4,6.108472589E-4
1.660406094E1,-4.581354442E-4,1.527118147E-4,6.108472589E-4
1.661371823E1,-4.581354442E-4,1.527118147E-4,-0.000000000E0
1.662337547E1,1.527118147E-4,-4.581354442E-4,-6.108472589E-4
1.663303271E1,1.527118147E-4,1.527118147E-4,0.000000000E0
1.664269000E1,1.527118147E-4,-4.581354442E-4,6.108472589E-4
1.665234724E1,1.527118147E-4,-4.581354442E-4,0.000000000E0
1.666200448E1,1.527118147E-4,-4.581354442E-4,6.108472589E-4
1.667166177E1,-5.344913807E-4,1.527118147E-4,6.108472589E-4
1.668131901E1,-5.344913807E-4,1.527118147E-4,0.000000000E0
1.669097625E1,-5.344913807E-4,1.527118147E-4,6.108472589E-4
1.670063349E1,7.635590737E-4,1.527118147E-4,0.000000000E0
1.671029078E1,-5.344913807E-4,1.527118147E-4,0.000000000E0
1.671994802E1,-5.344913807E-4,1.527118147E-4,0.000000000E0
1.672960526E1,-5.344913807E-4,1.527118147E-4,6.108472589E-4
1.673926256E1,-5.344913807E-4,7.635590737E-4,0.000000000E0
1.674891979E1,-5.344913807E-4,-4.581354442E-4,6.108472589E-4
1.675857703E1,7.635590737E-5,-4.581354442E-4,0.000000000E0
1.676823432E1,7.635590737E-5,1.527118147E-4,0.000000000E0
1.677789156E1,7.635590737E-5,-4.581354442E-4,-6.108472589E-4
1.678754880E1,-5.344913807E-4,-4.581354442E-4,0.000000000E0
1.679720604E1,7.635590737E-5,-4.581354442E-4,0.000000000E0
1.680686334E1,7.635590737E-5,-4.581354442E-4,6.108472589E-4
1.681652058E1,-5.344913807E-4,-4.581354442E-4,-0.000000000E0
1.682617782E1,-5.344913807E-4,1.527118147E-4,-0.000000000E0
1.683583511E1,-5.344913807E-4,1.527118147E-4,-0.000000000E0
1.684549235E1,7.635590737E-5,1.527118147E-4,-0.000000000E0
1.685514959E1,7.635590737E-5,1.527118147E-4,-0.000000000E0
1.686480683E1,-5.344913807E-4,1.527118147E-4,-0.000000000E0
1.687446412E1,7.635590737E-5,-4.581354442E-4,-0.000000000E0
1.688412136E1,-5.344913807E-4,1.527118147E-4,-0.000000000E0
1.689377860E1,-5.344913807E-4,1.527118147E-4,-6.108472589E-4
1.690343589E1,-5.344913807E-4,1.527118147E-4,-6.872031372E-4
1.691309313E1,7.635590737E-5,1.527118147E-4,5.344913807E-4
1.692275037E1,7.635590737E-5,-4.581354442E-4,-7.635590737E-5
1.693240766E1,-5.344913807E-4,-4.581354442E-4,5.344913807E-4
1.694206490E1,-5.344913807E-4,1.527118147E-4,5.344913807E-4
1.695172214E1,-5.344913807E-4,1.527118147E-4,-7.635590737E-5
1.696137943E1,1.527118147E-4,1.527118147E-4,-7.635590737E-5
1.697103667E1,1.527118147E-4,1.527118147E-4,-7.635590737E-5
1.698069391E1,1.527118147E-4,-4.581354442E-4,-6.872031372E-4
1.699035120E1,-4.581354442E-4,-4.581354442E-4,-7.635590737E-5
1.700000844E1,1.527118147E-4,-4.581354442E-4,-6.872031372E-4
1.700966568E1,1.527118147E-4,1.527118147E-4,-6.872031372E-4
1.701932292E1,1.527118147E-4,-4.581354442E-4,-7.635590737E-5
1.702898021E1,-4.581354442E-4,7.635590737E-4,-7.635590737E-5
1.703863745E1,1.527118147E-4,7.635590737E-4,-7.635590737E-5
1.704829469E1,-4.581354442E-4,1.527118147E-4,-6.872031372E-4
1.705795198E1,-4.581354442E-4,1.527118147E-4,5.344913807E-4
1.706760922E1,2.290677221E-4,7.635590737E-4,5.344913807E-4
1.707726646E1,8.399150101E-4,-4.581354442E-4,5.344913807E-4
1.708692375E1,2.290677221E-4,-4.581354442E-4,5.344913807E-4
1.709658099E1,2.290677221E-4,1.527118147E-4,-7.635590737E-5
1.710623823E1,-3.817795368E-4,1.527118147E-4,5.344913807E-4
1.711589547E1,2.290677221E-4,1.527118147E-4,-7.635590737E-5
1.712555276E1,-3.817795368E-4,1.527118147E-4,-6.872031372E-4
1.713521000E1,-3.817795368E-4,1.527118147E-4,5.344913807E-4
1.714486724E1,2.290677221E-4,-4.581354442E-4,-6.872031372E-4
1.715452453E1,2.290677221E-4,-4.581354442E-4,-1.298050396E-3
1.716418177E1,8.399150101E-4,-4.581354442E-4,-7.635590737E-5
1.717383901E1,9.162708884E-4,1.527118147E-4,-7.635590737E-5
1.718349631E1,2.290677221E-4,1.527118147E-4,-6.872031372E-4
1.719315354E1,-3.817795368E-4,-4.581354442E-4,-7.635590737E-5
1.720281078E1,-3.817795368E-4,1.527118147E-4,-7.635590737E-5
1.721246808E1,-9.926267667E-4,1.527118147E-4,-6.872031372E-4
1.722212532E1,2.290677221E-4,7.635590737E-4,-6.872031372E-4
1.723178256E1,-3.817795368E-4,7.635590737E-4,5.344913807E-4
1.724143979E1,-3.817795368E-4,1.527118147E-4,-7.635590737E-5
1.725109709E1,2.290677221E-4,-4.581354442E-4,-7.635590737E-5
1.726075432E1,2.290677221E-4,-4.581354442E-4,5.344913807E-4
1.727041156E1,-3.817795368E-4,-4.581354442E-4,-0.000000000E0
1.728006886E1,2.290677221E-4,1.527118147E-4,-0.000000000E0
1.728972610E1,2.290677221E-4,1.527118147E-4,-0.000000000E0
1.729938334E1,2.290677221E-4,1.527118147E-4,-0.000000000E0
1.730904058E1,2.290677221E-4,1.527118147E-4,6.108472589E-4
1.731869787E1,2.290677221E-4,1.527118147E-4,6.108472589E-4
1.732835511E1,2.290677221E-4,1.527118147E-4,6.108472589E-4
1.733801235E1,-3.817795368E-4,-4.581354442E-4,1.221694518E-3
1.734766964E1,2.290677221E-4,-4.581354442E-4,6.108472589E-4
1.735732688E1,-3.817795368E-4,-4.581354442E-4,1.221694518E-3
1.736698412E1,2.290677221E-4,-4.581354442E-4,-0.000000000E0
1.737664141E1,2.290677221E-4,1.527118147E-4,-0.000000000E0
1.738629865E1,-3.817795368E-4,1.527118147E-4,6.108472589E-4
1.739595589E1,-3.817795368E-4,7.635590737E-4,1.221694518E-3
1.740561318E1,-3.817795368E-4,1.527118147E-4,6.108472589E-4
1.741527042E1,-3.817795368E-4,1.527118147E-4,-0.000000000E0
1.742492766E1,2.290677221E-4,1.527118147E-4,-0.000000000E0
1.743458495E1,-3.817795368E-4,1.527118147E-4,-6.108472589E-4
1.744424219E1,8.399150101E-4,1.527118147E-4,-0.000000000E0
1.745389943E1,8.399150101E-4,1.527118147E-4,-0.000000000E0
1.746355672E1,-3.817795368E-4,-4.581354442E-4,-6.108472589E-4
1.747321396E1,2.290677221E-4,1.527118147E-4,-0.000000000E0
1.748287120E1,2.290677221E-4,1.527118147E-4,-0.000000000E0
1.749252844E1,-3.817795368E-4,1.527118147E-4,-0.000000000E0
1.750218573E1,2.290677221E-4,1.527118147E-4,-7.635590737E-5
1.751184297E1,-3.817795368E-4,1.527118147E-4,-7.635590737E-5
1.752150021E1,2.290677221E-4,7.635590737E-4,-6.872031372E-4
1.753115750E1,2.290677221E-4,1.527118147E-4,-6.872031372E-4
1.754081474E1,2.290677221E-4,-4.581354442E-4,-6.872031372E-4
1.755047198E1,2.290677221E-4,1.527118147E-4,-7.635590737E-5
1.756012927E1,2.290677221E-4,-4.581354442E-4,-7.635590737E-5
1.756978651E1,8.399150101E-4,-4.581354442E-4,-6.872031372E-4
1.757944375E1,2.290677221E-4,-4.581354442E-4,-7.635590737E-5
1.758910104E1,-3.817795368E-4,1.527118147E-4,5.344913807E-4
1.759875828E1,-3.817795368E-4,-4.581354442E-4,5.344913807E-4
1.760841552E1,2.290677221E-4,7.635590737E-4,-7.635590737E-5
1.761807276E1,-3.817795368E-4,1.527118147E-4,-7.635590737E-5
1.762773006E1,-3.817795368E-4,1.527118147E-4,-1.527118147E-4
1.763738729E1,-3.817795368E-4,1.527118147E-4,-1.527118147E-4
1.764704453E1,2.290677221E-4,-4.581354442E-4,-1.527118147E-4
1.765670183E1,-3.817795368E-4,-4.581354442E-4,4.581354442E-4
1.766635906E1,-3.817795368E-4,1.527118147E-4,-1.527118147E-4
1.767601630E1,-3.817795368E-4,1.527118147E-4,-1.527118147E-4
1.768567360E1,2.290677221E-4,-4.581354442E-4,4.581354442E-4
1.769533084E1,2.290677221E-4,1.527118147E-4,-1.527118147E-4
1.770498808E1,2.290677221E-4,1.527118147E-4,-7.635590737E-4
1.771464537E1,2.290677221E-4,1.527118147E-4,-7.635590737E-5
1.772430261E1,2.290677221E-4,-4.581354442E-4,-7.635590737E-5
1.773395985E1,-3.817795368E-4,1.527118147E-4,-7.635590737E-5
1.774361714E1,-3.817795368E-4,1.527118147E-4,-7.635590737E-5
1.775327438E1,2.290677221E-4,1.527118147E-4,-6.872031372E-4
1.776293162E1,-3.817795368E-4,1.527118147E-4,-7.635590737E-5
1.777258886E1,2.290677221E-4,1.527118147E-4,-7.635590737E-5
1.778224615E1,-3.817795368E-4,-4.581354442E-4,5.344913807E-4
1.779190339E1,2.290677221E-4,-4.581354442E-4,-7.635590737E-5
1.780156063E1,2.290677221E-4,1.527118147E-4,-6.872031372E-4
1.781121792E1,2.290677221E-4,1.527118147E-4,5.344913807E-4
1.782087516E1,2.290677221E-4,-4.581354442E-4,-7.635590737E-5
1.783053240E1,2.290677221E-4,-4.581354442E-4,-7.635590737E-5
1.784018969E1,2.290677221E-4,1.527118147E-4,-7.635590737E-5
1.784984693E1,-3.817795368E-4,-4.581354442E-4,-7.635590737E-5
1.785950417E1,2.290677221E-4,1.527118147E-4,5.344913807E-4
1.786916146E1,8.399150101E-4,1.527118147E-4,5.344913807E-4
1.787881870E1,8.399150101E-4,-4.581354442E-4,5.344913807E-4
1.788847594E1,2.290677221E-4,1.527118147E-4,5.344913807E-4
1.789813323E1,2.290677221E-4,1.527118147E-4,-7.635590737E-5
1.790779047E1,-3.817795368E-4,-4.581354442E-4,-7.635590737E-5
1.791744771E1,-3.817795368E-4,1.527118147E-4,-7.635590737E-5
1.792710495E1,-3.817795368E-4,-4.581354442E-4,-7.635590737E-5
1.793676224E1,-9.926267667E-4,-4.581354442E-4,-7.635590737E-5
1.794641948E1,2.290677221E-4,-4.581354442E-4,5.344913807E-4
1.795607672E1,-3.817795368E-4,-4.581354442E-4,5.344913807E-4
1.796573401E1,-3.817795368E-4,-4.581354442E-4,-7.635590737E-5
1.797539125E1,-3.817795368E-4,1.527118147E-4,-7.635590737E-5
1.798504849E1,8.399150101E-4,1.527118147E-4,-7.635590737E-5
1.799470578E1,2.290677221E-4,7.635590737E-4,-7.635590737E-5
1.800436302E1,-3.817795368E-4,1.527118147E-4,-6.872031372E-4
1.801402026E1,2.290677221E-4,-4.581354442E-4,-7.635590737E-5
1.802367756E1,-3.817795368E-4,7.635590737E-4,-7.635590737E-5
1.803333479E1,-3.817795368E-4,1.527118147E-4,-6.872031372E-4
1.804299203E1,2.290677221E-4,-4.581354442E-4,-7.635590737E-5
1.805264932E1,-3.817795368E-4,-4.581354442E-4,-6.872031372E-4
1.806230656E1,2.290677221E-4,2.290677221E-4,-7.635590737E-5
1.807196381E1,-3.817795368E-4,-3.817795368E-4,-7.635590737E-5
1.808162110E1,2.290677221E-4,-3.817795368E-4,5.344913807E-4
1.809127834E1,2.290677221E-4,2.290677221E-4,-7.635590737E-5
1.810093558E1,-3.817795368E-4,2.290677221E-4,5.344913807E-4
1.811059282E1,2.290677221E-4,2.290677221E-4,5.344913807E-4
1.812025011E1,-3.817795368E-4,2.290677221E-4,5.344913807E-4
1.812990735E1,-3.817795368E-4,2.290677221E-4,-7.635590737E-5
1.813956459E1,2.290677221E-4,2.290677221E-4,-7.635590737E-5
1.814922188E1,2.290677221E-4,2.290677221E-4,-7.635590737E-5
1.815887912E1,-3.817795368E-4,2.290677221E-4,-7.635590737E-5
1.816853636E1,-3.817795368E-4,2.290677221E-4,-7.635590737E-5
1.817819365E1,2.290677221E-4,2.290677221E-4,-7.635590737E-5
1.818785089E1,-3.817795368E-4,2.290677221E-4,5.344913807E-4
1.819750813E1,8.399150101E-4,2.290677221E-4,-7.635590737E-5
1.820716542E1,8.399150101E-4,2.290677221E-4,-7.635590737E-5
1.821682266E1,2.290677221E-4,2.290677221E-4,5.344913807E-4
1.822647990E1,2.290677221E-4,-3.817795368E-4,-7.635590737E-5
1.823613719E1,-3.817795368E-4,2.290677221E-4,5.344913807E-4
1.824579443E1,-3.817795368E-4,-3.817795368E-4,-7.635590737E-5
1.825545167E1,2.290677221E-4,-3.817795368E-4,-7.635590737E-5
1.826510896E1,2.290677221E-4,2.290677221E-4,-6.872031372E-4
1.827476620E1,-3.817795368E-4,2.290677221E-4,-7.635590737E-5
1.828442344E1,-3.817795368E-4,2.290677221E-4,-7.635590737E-5
1.829408073E1,2.290677221E-4,2.290677221E-4,-6.872031372E-4
1.830373797E1,-9.926267667E-4,2.290677221E-4,5.344913807E-4
1.831339521E1,2.290677221E-4,2.290677221E-4,5.344913807E-4
1.832305250E1,-3.817795368E-4,2.290677221E-4,5.344913807E-4
1.833270974E1,-3.817795368E-4,2.290677221E-4,5.344913807E-4
1.834236698E1,-3.817795368E-4,2.290677221E-4,-7.635590737E-5
1.835202422E1,-3.817795368E-4,2.290677221E-4,-7.635590737E-5
1.836168151E1,-3.817795368E-4,-3.817795368E-4,-7.635590737E-5
1.837133875E1,-9.926267667E-4,2.290677221E-4,-6.872031372E-4
1.838099599E1,-3.817795368E-4,2.290677221E-4,5.344913807E-4
1.839065328E1,-3.817795368E-4,2.290677221E-4,5.344913807E-4
1.840031052E1,-3.817795368E-4,1.527118147E-4,5.344913807E-4
1.840996776E1,2.290677221E-4,1.527118147E-4,5.344913807E-4
1.841962506E1,2.290677221E-4,-4.581354442E-4,1.145338640E-3
1.842928229E1,3.054236295E-4,-4.581354442E-4,5.344913807E-4
1.843893953E1,3.054236295E-4,1.527118147E-4,1.145338640E-3
1.844859683E1,-3.817795368E-4,7.635590737E-4,5.344913807E-4
1.845825407E1,-3.817795368E-4,-4.581354442E-4,-7.635590737E-5
1.846791130E1,-3.817795368E-4,1.527118147E-4,5.344913807E-4
1.847756860E1,9.162708884E-4,1.527118147E-4,-7.635590737E-4
1.848722584E1,-3.054236295E-4,1.527118147E-4,-7.635590737E-4
1.849688308E1,-3.054236295E-4,-4.581354442E-4,-1.527118147E-4
1.850654037E1,3.054236295E-4,-4.581354442E-4,4.581354442E-4
1.851619761E1,3.054236295E-4,1.527118147E-4,-1.527118147E-4
1.852585485E1,9.162708884E-4,1.527118147E-4,-7.635590737E-4
1.853551214E1,9.162708884E-4,1.527118147E-4,-7.635590737E-4
1.854516938E1,3.054236295E-4,1.527118147E-4,-1.527118147E-4
1.855482662E1,3.054236295E-4,1.527118147E-4,-1.527118147E-4
1.856448391E1,3.054236295E-4,1.527118147E-4,-7.635590737E-4
1.857414115E1,3.054236295E-4,1.527118147E-4,-1.527118147E-4
1.858379839E1,-3.054236295E-4,-4.581354442E-4,-1.527118147E-4
1.859345563E1,-3.054236295E-4,-4.581354442E-4,-1.527118147E-4
1.860311292E1,3.054236295E-4,-4.581354442E-4,4.581354442E-4
1.861277016E1,3.054236295E-4,-4.581354442E-4,-1.527118147E-4
1.862242745E1,3.054236295E-4,-4.581354442E-4,-7.635590737E-4
1.863208469E1,-3.054236295E-4,1.527118147E-4,-1.527118147E-4
1.864174193E1,3.054236295E-4,-4.581354442E-4,4.581354442E-4
1.865139917E1,-3.054236295E-4,-4.581354442E-4,-1.527118147E-4
1.866105646E1,-3.054236295E-4,1.527118147E-4,4.581354442E-4
1.867071370E1,-3.054236295E-4,1.527118147E-4,4.581354442E-4
1.868037094E1,-3.054236295E-4,1.527118147E-4,-1.527118147E-4
1.869002823E1,3.054236295E-4,1.527118147E-4,-2.290677221E-4
1.869968547E1,3.054236295E-4,-4.581354442E-4,3.817795368E-4
1.870934271E1,3.054236295E-4,-4.581354442E-4,-1.527118147E-4
1.871900000E1,-3.054236295E-4,1.527118147E-4,4.581354442E-4
1.872865724E1,3.054236295E-4,1.527118147E-4,4.581354442E-4
1.873831448E1,9.162708884E-4,-4.581354442E-4,-1.527118147E-4
1.874797177E1,9.162708884E-4,1.527118147E-4,1.068982761E-3
1.875762901E1,3.054236295E-4,7.635590737E-4,4.581354442E-4
1.876728625E1,3.054236295E-4,1.527118147E-4,4.581354442E-4
1.877694354E1,9.162708884E-4,1.527118147E-4,-1.527118147E-4
1.878660078E1,3.054236295E-4,1.527118147E-4,4.581354442E-4
1.879625802E1,-3.054236295E-4,1.527118147E-4,-1.527118147E-4
1.880591532E1,-3.054236295E-4,1.527118147E-4,-7.635590737E-4
1.881557256E1,3.054236295E-4,1.527118147E-4,-1.527118147E-4
1.882522979E1,3.054236295E-4,1.527118147E-4,4.581354442E-4
1.883488709E1,2.290677221E-4,1.527118147E-4,4.581354442E-4
1.884454432E1,2.290677221E-4,1.527118147E-4,4.581354442E-4
1.885420156E1,2.290677221E-4,1.527118147E-4,-1.527118147E-4
1.886385886E1,-3.817795368E-4,1.527118147E-4,-1.527118147E-4
1.887351610E1,-3.817795368E-4,-4.581354442E-4,-1.527118147E-4
1.888317334E1,-3.817795368E-4,1.527118147E-4,4.581354442E-4
1.889283063E1,-3.817795368E-4,1.527118147E-4,4.581354442E-4
1.890248787E1,-3.817795368E-4,1.527118147E-4,-1.527118147E-4
1.891214511E1,-3.817795368E-4,-4.581354442E-4,-1.527118147E-4
1.892180240E1,2.290677221E-4,-4.581354442E-4,-1.527118147E-4
1.893145964E1,2.290677221E-4,1.527118147E-4,-1.527118147E-4
1.894111688E1,-3.817795368E-4,1.527118147E-4,-1.527118147E-4
1.895077417E1,-3.817795368E-4,1.527118147E-4,-1.527118147E-4
1.896043141E1,-3.817795368E-4,1.527118147E-4,-1.527118147E-4
1.897008865E1,2.290677221E-4,1.527118147E-4,3.817795368E-4
1.897974594E1,2.290677221E-4,1.527118147E-4,3.817795368E-4
1.898940318E1,2.290677221E-4,-4.581354442E-4,3.817795368E-4
1.899906042E1,2.290677221E-4,-4.581354442E-4,3.817795368E-4
1.900871771E1,1.527118147E-4,1.527118147E-4,-2.290677221E-4
1.901837495E1,-4.581354442E-4,1.527118147E-4,-8.399150101E-4
1.902803219E1,-4.581354442E-4,1.527118147E-4,3.817795368E-4
1.903768948E1,1.527118147E-4,1.527118147E-4,3.817795368E-4
1.904734672E1,1.527118147E-4,1.527118147E-4,3.817795368E-4
1.905700396E1,1.527118147E-4,1.527118147E-4,-2.290677221E-4
1.906666125E1,1.527118147E-4,1.527118147E-4,-2.290677221E-4
1.907631849E1,1.527118147E-4,1.527118147E-4,3.817795368E-4
1.908597573E1,1.527118147E-4,-4.581354442E-4,-8.399150101E-4
1.909563302E1,-4.581354442E-4,-4.581354442E-4,-2.290677221E-4
1.910529026E1,1.527118147E-4,1.527118147E-4,-8.399150101E-4
1.911494750E1,-4.581354442E-4,1.527118147E-4,3.817795368E-4
1.912460479E1,-4.581354442E-4,1.527118147E-4,-2.290677221E-4
1.913426203E1,-4.581354442E-4,7.635590737E-4,3.817795368E-4
1.914391927E1,-4.581354442E-4,1.527118147E-4,-2.290677221E-4
1.915357651E1,-4.581354442E-4,-4.581354442E-4,3.817795368E-4
1.916323380E1,-4.581354442E-4,1.527118147E-4,9.926267667E-4
1.917289104E1,-4.581354442E-4,-4.581354442E-4,3.817795368E-4
1.918254828E1,2.290677221E-4,1.527118147E-4,-2.290677221E-4
1.919220558E1,2.290677221E-4,1.527118147E-4,-2.290677221E-4
1.920186282E1,2.290677221E-4,1.527118147E-4,3.817795368E-4
1.921152011E1,-3.817795368E-4,7.635590737E-4,-8.399150101E-4
1.922117735E1,2.290677221E-4,1.527118147E-4,-2.290677221E-4
1.923083459E1,2.290677221E-4,1.527118147E-4,3.817795368E-4
1.924049188E1,-3.817795368E-4,1.527118147E-4,-2.290677221E-4
1.925014912E1,-3.817795368E-4,-4.581354442E-4,9.926267667E-4
1.925980636E1,2.290677221E-4,1.527118147E-4,3.817795368E-4
1.926946365E1,2.290677221E-4,1.527118147E-4,3.817795368E-4
